{
  "$schema": "../schemas/validation-rules.schema.json",
  "version": "1.0.0",

  "rules": [
    {
      "id": "SD-001", "name": "Orphaned subjects",
      "description": "Checks that all ARMCD values in DM exist in TA. Subjects with unmatched ARMCD cannot be mapped to a trial arm structure, so epoch-level information (treatment duration, recovery period) will be unavailable.",
      "severity": "Warning", "category": "Study design",
      "applicable_domains": ["DM", "TA"],
      "fix_guidance": "Verify whether TA is incomplete or DM.ARMCD contains a typo. Subjects will still be included in analysis using DM.ARM label.",
      "auto_fixable": false, "default_fix_tier": 2,
      "evidence_type": "cross-domain",
      "cdisc_reference": "SENDIG 3.1, Section 5.1",
      "applies_to_study_types": ["REPEAT_DOSE_*", "ACUTE", "DOSE_RANGE_FINDER", "SAFETY_PHARM_CARDIOVASCULAR"]
    },
    {
      "id": "SD-002", "name": "Empty arms",
      "description": "Checks for arms defined in TA that have no subjects in DM. Common for TK satellite groups or unused arms.",
      "severity": "Info", "category": "Study design",
      "applicable_domains": ["TA", "DM"],
      "fix_guidance": "Empty arms are common for TK satellite groups that were planned but not enrolled. No action needed unless subjects are expected.",
      "auto_fixable": false, "default_fix_tier": 1,
      "evidence_type": "metadata",
      "cdisc_reference": "SENDIG 3.1, Section 5.1",
      "applies_to_study_types": ["REPEAT_DOSE_*", "ACUTE", "DOSE_RANGE_FINDER", "SAFETY_PHARM_CARDIOVASCULAR"]
    },
    {
      "id": "SD-003", "name": "Ambiguous control status",
      "description": "Checks for inconsistencies in control group identification: subjects with dose=0 not flagged as control, control subjects with non-zero dose, or no control group detected.",
      "severity": "Warning", "category": "Study design",
      "applicable_domains": ["DM", "EX", "TX"],
      "fix_guidance": "Assign the correct control group using the dropdown in the Study Design validation mode. Comparative statistics require a control group.",
      "auto_fixable": false, "default_fix_tier": 2,
      "evidence_type": "cross-domain",
      "cdisc_reference": "SENDIG 3.1, Section 5.3",
      "applies_to_study_types": ["REPEAT_DOSE_*", "ACUTE", "DOSE_RANGE_FINDER", "SAFETY_PHARM_CARDIOVASCULAR"]
    },
    {
      "id": "SD-004", "name": "Missing trial summary parameters",
      "description": "Checks that TS contains required parameters: SPECIES, STRAIN, ROUTE, SSTDTC, SSTYP. Missing parameters reduce study metadata completeness.",
      "severity": "Info", "category": "Study design",
      "applicable_domains": ["TS"],
      "fix_guidance": "Add missing TS parameters. Values may be inferred from other domains (DM.SPECIES, EX.EXROUTE) where available.",
      "auto_fixable": false, "default_fix_tier": 1,
      "evidence_type": "missing-value",
      "cdisc_reference": "SENDIG 3.1, Section 3.1",
      "applies_to_study_types": ["REPEAT_DOSE_*", "ACUTE", "DOSE_RANGE_FINDER", "SAFETY_PHARM_CARDIOVASCULAR"]
    },
    {
      "id": "SD-005", "name": "Dose inconsistency within subject",
      "description": "Checks for subjects with multiple distinct EXDOSE values in EX, suggesting dose escalation or modification. Maximum dose is used for group assignment.",
      "severity": "Warning", "category": "Study design",
      "applicable_domains": ["EX"],
      "fix_guidance": "Review whether max dose is the appropriate grouping strategy for this study. Per-timepoint dose is preserved in EX for time-resolved analysis.",
      "auto_fixable": false, "default_fix_tier": 2,
      "evidence_type": "cross-domain",
      "cdisc_reference": "SENDIG 3.1, Section 5.2",
      "applies_to_study_types": ["REPEAT_DOSE_*", "ACUTE", "DOSE_RANGE_FINDER"]
    },
    {
      "id": "SD-006", "name": "Orphaned sets",
      "description": "Checks for trial sets (SETCD) in TX that have no matching subjects in DM. Similar to empty arms.",
      "severity": "Info", "category": "Study design",
      "applicable_domains": ["TX", "DM"],
      "fix_guidance": "Similar to empty arms (SD-002). Common for planned-but-unused TK or satellite groups.",
      "auto_fixable": false, "default_fix_tier": 1,
      "evidence_type": "metadata",
      "cdisc_reference": "SENDIG 3.1, Section 5.1",
      "applies_to_study_types": ["REPEAT_DOSE_*", "ACUTE", "DOSE_RANGE_FINDER", "SAFETY_PHARM_CARDIOVASCULAR"]
    },
    {
      "id": "SD-007", "name": "ARM/ARMCD mismatch across domains",
      "description": "Checks that the same ARMCD maps to the same ARM label in both DM and TA. Mismatches indicate data integrity issues.",
      "severity": "Error", "category": "Study design",
      "applicable_domains": ["DM", "TA"],
      "fix_guidance": "Investigate the ARMCD-to-ARM mapping in both DM and TA. The DM value is used for subject assignment.",
      "auto_fixable": false, "default_fix_tier": 3,
      "evidence_type": "cross-domain",
      "cdisc_reference": "SENDIG 3.1, Section 5.1",
      "applies_to_study_types": ["REPEAT_DOSE_*", "ACUTE", "DOSE_RANGE_FINDER", "SAFETY_PHARM_CARDIOVASCULAR"]
    },
    {
      "id": "FDA-001", "name": "Categorical data in numeric result",
      "description": "Detects LBTESTCD tests where LBSTRESN contains only a few distinct integer values (\u22646), suggesting ordinal/categorical data stored as continuous numeric. FDA reviewers flag this as it affects statistical method choice.",
      "severity": "Warning", "category": "Data quality",
      "applicable_domains": ["LB"],
      "fix_guidance": "Move categorical results to LBSTRESC. If ordinal scoring is intentional, document in analysis plan.",
      "auto_fixable": false, "default_fix_tier": 2,
      "evidence_type": "metadata",
      "cdisc_reference": "FDA SEND Review Guide, Section 4.2",
      "applies_to_study_types": ["REPEAT_DOSE_*", "ACUTE", "DOSE_RANGE_FINDER"]
    },
    {
      "id": "FDA-002", "name": "Timing variable alignment",
      "description": "Checks for NOMDY (nominal study day) presence alongside VISITDY. When both exist, validates alignment within tolerance. Missing NOMDY reduces the ability to compare planned vs actual timing.",
      "severity": "Warning", "category": "Data quality",
      "applicable_domains": ["LB", "CL", "EG", "BW"],
      "fix_guidance": "Add NOMDY to findings domains if planned visit schedule is available. Align NOMDY with protocol-defined visit days.",
      "auto_fixable": false, "default_fix_tier": 1,
      "evidence_type": "metadata",
      "cdisc_reference": "SENDIG 3.1, Section 4.1",
      "applies_to_study_types": ["REPEAT_DOSE_*", "ACUTE", "DOSE_RANGE_FINDER", "SAFETY_PHARM_CARDIOVASCULAR"]
    },
    {
      "id": "FDA-003", "name": "Below-LLOQ without imputation method",
      "description": "Checks PC domain for below-LLOQ results (BQL/PCSTRESN null) without a corresponding SUPPPC record documenting the imputation method (QNAM=CALCN).",
      "severity": "Warning", "category": "Data quality",
      "applicable_domains": ["PC"],
      "fix_guidance": "Add SUPPPC records with QNAM='CALCN' and QVAL describing the imputation method (e.g., 'BQL=0', 'BQL=LLOQ/2').",
      "auto_fixable": false, "default_fix_tier": 2,
      "evidence_type": "missing-value",
      "cdisc_reference": "FDA Bioanalytical Method Guidance, SENDIG 3.1 Section 6.3",
      "applies_to_study_types": ["REPEAT_DOSE_*", "ACUTE", "DOSE_RANGE_FINDER"]
    },
    {
      "id": "FDA-004", "name": "Undefined controlled terminology codes",
      "description": "Checks key coded fields (DSDECOD, EGTESTCD) against CDISC SEND controlled terminology. Undefined codes reduce interoperability.",
      "severity": "Info", "category": "Data quality",
      "applicable_domains": ["DS", "EG"],
      "fix_guidance": "Map values to standard CDISC controlled terminology terms where possible.",
      "auto_fixable": false, "default_fix_tier": 1,
      "evidence_type": "code-mapping",
      "cdisc_reference": "CDISC SEND CT, NCI Thesaurus",
      "applies_to_study_types": ["REPEAT_DOSE_*", "ACUTE", "DOSE_RANGE_FINDER", "SAFETY_PHARM_CARDIOVASCULAR"]
    },
    {
      "id": "FDA-005", "name": "Early-death data in terminal statistics",
      "description": "Identifies subjects with DSDECOD='MORIBUND SACRIFICE' or 'FOUND DEAD' that died well before the scheduled terminal sacrifice. Their inclusion in terminal group statistics can bias results.",
      "severity": "Error", "category": "Data quality",
      "applicable_domains": ["DS"],
      "fix_guidance": "Exclude early-death subjects from terminal sacrifice group statistics. Use the Early Death Exclusion toggle in analysis views.",
      "auto_fixable": false, "default_fix_tier": 2,
      "evidence_type": "cross-domain",
      "cdisc_reference": "FDA SEND Review Guide, Section 3.1",
      "applies_to_study_types": ["REPEAT_DOSE_*", "ACUTE", "DOSE_RANGE_FINDER"]
    },
    {
      "id": "FDA-006", "name": "Cross-domain EPOCH linking",
      "description": "Verifies SE domain element codes (ETCD) map to TA for each subject's arm, and that all DM subjects have SE records. Broken epoch chains prevent temporal analysis.",
      "severity": "Info", "category": "Data quality",
      "applicable_domains": ["SE", "DM", "TA"],
      "fix_guidance": "Ensure SE contains element records for all subjects and that ETCD values match TA for the subject's ARMCD.",
      "auto_fixable": false, "default_fix_tier": 1,
      "evidence_type": "cross-domain",
      "cdisc_reference": "SENDIG 3.1, Section 5.1",
      "applies_to_study_types": ["REPEAT_DOSE_*", "ACUTE", "DOSE_RANGE_FINDER"]
    },
    {
      "id": "FDA-007", "name": "QTc correction documentation",
      "description": "Checks EG domain for QTc correction method documentation. Flags when EGMETHOD is empty or when only one correction formula is present for non-rodent species.",
      "severity": "Info", "category": "Data quality",
      "applicable_domains": ["EG"],
      "fix_guidance": "Document QTc correction formula in EGMETHOD. For non-rodent species, include both Bazett and Fridericia corrections.",
      "auto_fixable": false, "default_fix_tier": 1,
      "evidence_type": "metadata",
      "cdisc_reference": "ICH S7B, FDA SEND Review Guide",
      "applies_to_study_types": ["REPEAT_DOSE_*", "ACUTE", "DOSE_RANGE_FINDER", "SAFETY_PHARM_CARDIOVASCULAR"]
    }
  ],

  "fix_tiers": [
    { "tier": 1, "name": "Accept as-is", "description": "Informational finding, no correction needed. The data is compliant or the issue is expected." },
    { "tier": 2, "name": "Simple correction", "description": "Straightforward value fix — typo, case mismatch, formatting error. Single-field update." },
    { "tier": 3, "name": "Script fix", "description": "Requires automated script to resolve. Multi-record or multi-field corrections." }
  ],

  "evidence_types": [
    { "type": "value-correction", "name": "Value correction", "description": "Simple A → B replacement for a single value." },
    { "type": "value-correction-multi", "name": "Multi-candidate", "description": "Multiple possible correct values; reviewer selects one." },
    { "type": "code-mapping", "name": "Code mapping", "description": "Controlled terminology lookup — maps free-text to standard code." },
    { "type": "range-check", "name": "Range check", "description": "Value outside expected range or format." },
    { "type": "missing-value", "name": "Missing value", "description": "Required field not populated in the dataset." },
    { "type": "metadata", "name": "Metadata", "description": "Structural or metadata issue in the dataset." },
    { "type": "cross-domain", "name": "Cross-domain", "description": "Consistency check across multiple SEND domains." }
  ]
}
