Code	Codelist Code	Codelist Extensible (Yes/No)	Codelist Name	CDISC Submission Value	CDISC Synonym(s)	CDISC Definition	NCI Preferred Term
C124310		Yes	Fetal Pathology Findings Result	FXFINDRS	Fetal Pathology Findings Result	Terminology relevant to the results for fetal gross pathological findings.	CDISC SEND Fetal Pathology Findings Result Terminology
C124485	C124310		Fetal Pathology Findings Result	ABNORMAL CONSISTENCY	Altered Consistency	Atypical consistency observed in the contents of a structure.	Altered Consistency
C124486	C124310		Fetal Pathology Findings Result	ABNORMAL FISSURE		An atypical long narrow slit or groove that divides an organ into lobes, or tissues and bone into parts. (NCI)	Abnormal Fissure
C124487	C124310		Fetal Pathology Findings Result	ABNORMAL FLEXURE		A flexure that is deviating from the norm or outside the bounds of what is considered normal.	Abnormal Flexure
C186225	C124310		Fetal Pathology Findings Result	ABNORMAL FLUID OR SUBSTANCE		The abnormal presence of fluid or other biological material.	Abnormal Fluid or Substance
C124488	C124310		Fetal Pathology Findings Result	ABNORMAL LOBATION		A lobation that is deviating from the norm or outside the bounds of what is considered normal.	Abnormal Lobation
C124489	C124310		Fetal Pathology Findings Result	ABNORMAL ORIGIN	Malpositioned Origin	An origin that is deviating from the norm or outside the bounds of what is considered normal.	Abnormal Origin
C124490	C124310		Fetal Pathology Findings Result	ABNORMAL SUTURE		Skull bones out of alignment causing the suture to deviate from its normal pattern.	Abnormal Suture Line
C124491	C124310		Fetal Pathology Findings Result	ABNORMAL TEXTURE	Altered Surface Texture; Altered Texture	Atypical texture observed in the surface of a structure.	Altered Texture
C124492	C124310		Fetal Pathology Findings Result	ABSENT FISSURE		The lack of a long narrow slit or groove that normally divides an organ into lobes, or tissues and bone into parts. (NCI)	Absent Fissure
C48190	C124310		Fetal Pathology Findings Result	ABSENT		Not existing in a specified place at a specified time. (NCI)	Absent
C124493	C124310		Fetal Pathology Findings Result	ACEPHALOSTOMIA		Absence of the head but with the presence of mouth-like orifice in the neck region. (Makris S, Solomon HM, Clark R, Shiota K, Barbellion S, Buschmann J, Ema M, Fujiwara M, Grote K, Hazelden KP, Hew KW, Horimoto M, Ooshima Y, Parkinson M, Wise LD. Terminology of developmental abnormalities in common laboratory mammals (Version 2). Part B. Birth Defects Res B Dev Reprod Toxicol. 2009 Aug;86(4):227-327.)	Acephalostomia
C186226	C124310		Fetal Pathology Findings Result	ADHERED TO CORNEA		The entity is attached to the cornea.	Adhered to Cornea
C54685	C124310		Fetal Pathology Findings Result	ADHESION		A fibrinous or fibrous connection between two surfaces or tissues, connecting tissues or organs that are not normally attached.	Tissue Adhesion
C124494	C124310		Fetal Pathology Findings Result	AMNIOTIC BAND		Fibrous bands from the amnion that may entangle the fetus, causing constriction.	Amniotic Band
C84560	C124310		Fetal Pathology Findings Result	ANENCEPHALY		Absence of the cranial region of the head, with the brain absent or reduced. (Makris S, Solomon HM, Clark R, Shiota K, Barbellion S, Buschmann J, Ema M, Fujiwara M, Grote K, Hazelden KP, Hew KW, Horimoto M, Ooshima Y, Parkinson M, Wise LD. Terminology of developmental abnormalities in common laboratory mammals (Version 2). Part B. Birth Defects Res B Dev Reprod Toxicol. 2009 Aug;86(4):227-327.)	Anencephaly
C26693	C124310		Fetal Pathology Findings Result	ANEURYSM		Localized dilatation of a blood vessel wall.	Aneurysm
C124496	C124310		Fetal Pathology Findings Result	ASYMMETRIC OSSIFICATION	Misaligned Ossification	Commonly used for structures arising from two or more primary ossification centers (e.g., sternebrae, vertebral centra). Ossification is greater in one or more of the centers than the other(s). Applies only to ossification sites and does not imply that the structure, as represented by the bone precursor, is asymmetrical. (Makris S, Solomon HM, Clark R, Shiota K, Barbellion S, Buschmann J, Ema M, Fujiwara M, Grote K, Hazelden KP, Hew KW, Horimoto M, Ooshima Y, Parkinson M, Wise LD. Terminology of developmental abnormalities in common laboratory mammals (Version 2). Part B. Birth Defects Res B Dev Reprod Toxicol. 2009 Aug;86(4):227-327.)	Asymmetric Ossification
C186227	C124310		Fetal Pathology Findings Result	ASYMMETRIC		Lack of symmetry; The two sides of a normally symmetrical structure appear to be unequal in size and/or shape. (Makris S, Solomon HM, Clark R, Shiota K, Barbellion S, Buschmann J, Ema M, Fujiwara M, Grote K, Hazelden KP, Hew KW, Horimoto M, Ooshima Y, Parkinson M, Wise LD. Terminology of developmental abnormalities in common laboratory mammals (Version 2). Part B. Birth Defects Res B Dev Reprod Toxicol. 2009 Aug;86(4):227-327.)	Asymmetric
C124497	C124310		Fetal Pathology Findings Result	ATRESIA	Atretic	Absence or closure of a normal body orifice or tubular organ. (Makris S, Solomon HM, Clark R, Shiota K, Barbellion S, Buschmann J, Ema M, Fujiwara M, Grote K, Hazelden KP, Hew KW, Horimoto M, Ooshima Y, Parkinson M, Wise LD. Terminology of developmental abnormalities in common laboratory mammals (Version 2). Part B. Birth Defects Res B Dev Reprod Toxicol. 2009 Aug;86(4):227-327.)	Atresia
C99673	C124310		Fetal Pathology Findings Result	AUTOLYSIS		Post-mortem degradation of cells and tissues.	Autolysis
C124498	C124310		Fetal Pathology Findings Result	BENT	Bowed; Curved	Abnormal curvature. (Makris S, Solomon HM, Clark R, Shiota K, Barbellion S, Buschmann J, Ema M, Fujiwara M, Grote K, Hazelden KP, Hew KW, Horimoto M, Ooshima Y, Parkinson M, Wise LD. Terminology of developmental abnormalities in common laboratory mammals (Version 2). Part B. Birth Defects Res B Dev Reprod Toxicol. 2009 Aug;86(4):227-327.)	Bent
C124499	C124310		Fetal Pathology Findings Result	BILOBED		Organ that has two lobes or is divided into two lobes.	Bilobular
C124500	C124310		Fetal Pathology Findings Result	BIPARTITE OSSIFICATION		Ossification centers not fused. Commonly used for structures arising from two or more primary ossification centers (e.g., sternebrae, vertebral centra). Applies only to the ossification sites and does not imply that the structure, as represented by the bone precursor, is divided (split). (Makris S, Solomon HM, Clark R, Shiota K, Barbellion S, Buschmann J, Ema M, Fujiwara M, Grote K, Hazelden KP, Hew KW, Horimoto M, Ooshima Y, Parkinson M, Wise LD. Terminology of developmental abnormalities in common laboratory mammals (Version 2). Part B. Birth Defects Res B Dev Reprod Toxicol. 2009 Aug;86(4):227-327.)	Bipartite Ossification
C176479	C124310		Fetal Pathology Findings Result	BIVENTRICULAR OVERRIDE	Overriding	Biventricular origin of a cardiovascular vessel.	Vessel Biventricular Override
C124501	C124310		Fetal Pathology Findings Result	BLOOD FILLED		A finding indicating that that an anatomic space or cavity is filled with blood.	Blood-Filled
C176472	C124310		Fetal Pathology Findings Result	BLUNT-TIPPED		Rounded or flat at the end, not tapered. (Makris S, Solomon HM, Clark R, Shiota K, Barbellion S, Buschmann J, Ema M, Fujiwara M, Grote K, Hazelden KP, Hew KW, Horimoto M, Ooshima Y, Parkinson M, Wise LD. Terminology of developmental abnormalities in common laboratory mammals (Version 2). Part B. Birth Defects Res B Dev Reprod Toxicol. 2009 Aug;86(4):227-327.)	Blunt-Tipped
C61482	C124310		Fetal Pathology Findings Result	BRANCHED	Bifurcated; Forked	Having one or more collateral divisions of the structure, resembling the branches of a tree. (Makris S, Solomon HM, Clark R, Shiota K, Barbellion S, Buschmann J, Ema M, Fujiwara M, Grote K, Hazelden KP, Hew KW, Horimoto M, Ooshima Y, Parkinson M, Wise LD. Terminology of developmental abnormalities in common laboratory mammals (Version 2). Part B. Birth Defects Res B Dev Reprod Toxicol. 2009 Aug;86(4):227-327.)	Branch
C186228	C124310		Fetal Pathology Findings Result	BRANCHING VARIATION		Variation in the arrangement of vessels arising from an artery or vein. (Makris S, Solomon HM, Clark R, Shiota K, Barbellion S, Buschmann J, Ema M, Fujiwara M, Grote K, Hazelden KP, Hew KW, Horimoto M, Ooshima Y, Parkinson M, Wise LD. Terminology of developmental abnormalities in common laboratory mammals (Version 2). Part B. Birth Defects Res B Dev Reprod Toxicol. 2009 Aug;86(4):227-327.)	Vessel Branching Variation
C124503	C124310		Fetal Pathology Findings Result	CARTILAGE NOT FUSED		A finding referring to incomplete or absent chondrogenesis.	Cartilage Not Fused
C124504	C124310		Fetal Pathology Findings Result	CARTILAGINOUS FUSION		Joined together by cartilage.	Cartilaginous Fusion
C124505	C124310		Fetal Pathology Findings Result	CAUDAL DYSPLASIA		Severe reduction of caudal structures, including reduction of or absence of hindlimbs, tail, and/or sacral area. (Makris S, Solomon HM, Clark R, Shiota K, Barbellion S, Buschmann J, Ema M, Fujiwara M, Grote K, Hazelden KP, Hew KW, Horimoto M, Ooshima Y, Parkinson M, Wise LD. Terminology of developmental abnormalities in common laboratory mammals (Version 2). Part B. Birth Defects Res B Dev Reprod Toxicol. 2009 Aug;86(4):227-327.)	Caudal Dysplasia
C124506	C124310		Fetal Pathology Findings Result	CEBOCEPHALY		Two orbital cavities and two eyes present, the region between being narrowed. Expected skeletal alterations include fused frontonasal and/or maxillary bones and incisors. (Makris S, Solomon HM, Clark R, Shiota K, Barbellion S, Buschmann J, Ema M, Fujiwara M, Grote K, Hazelden KP, Hew KW, Horimoto M, Ooshima Y, Parkinson M, Wise LD. Terminology of developmental abnormalities in common laboratory mammals (Version 2). Part B. Birth Defects Res B Dev Reprod Toxicol. 2009 Aug;86(4):227-327.)	Cebocephaly
C124507	C124310		Fetal Pathology Findings Result	CELOSOMY		A developmental defect characterized by incomplete closure of the anterior body wall, resulting in herniation, to variable degrees, of thoracic and/or abdominal viscera. The sternum, sternal ends of ribs, and muscular body wall are usually defective or poorly developed. (Makris S, Solomon HM, Clark R, Shiota K, Barbellion S, Buschmann J, Ema M, Fujiwara M, Grote K, Hazelden KP, Hew KW, Horimoto M, Ooshima Y, Parkinson M, Wise LD. Terminology of developmental abnormalities in common laboratory mammals (Version 2). Part B. Birth Defects Res B Dev Reprod Toxicol. 2009 Aug;86(4):227-327.)	Celosomy
C158329	C124310		Fetal Pathology Findings Result	CERVICAL RIB		Presence of rib formation in the cervical region.	Cervical Rib
C124508	C124310		Fetal Pathology Findings Result	CHEILOGNATHOPALATOSCHISIS	Cheilognathouranoschisis	Cleft lip, upper jaw, and palate. (Makris S, Solomon HM, Clark R, Shiota K, Barbellion S, Buschmann J, Ema M, Fujiwara M, Grote K, Hazelden KP, Hew KW, Horimoto M, Ooshima Y, Parkinson M, Wise LD. Terminology of developmental abnormalities in common laboratory mammals (Version 2). Part B. Birth Defects Res B Dev Reprod Toxicol. 2009 Aug;86(4):227-327.)	Cheilognathopalatoschisis
C124509	C124310		Fetal Pathology Findings Result	CHEILOGNATHOSCHISIS		Cleft lip and jaw. (Makris S, Solomon HM, Clark R, Shiota K, Barbellion S, Buschmann J, Ema M, Fujiwara M, Grote K, Hazelden KP, Hew KW, Horimoto M, Ooshima Y, Parkinson M, Wise LD. Terminology of developmental abnormalities in common laboratory mammals (Version 2). Part B. Birth Defects Res B Dev Reprod Toxicol. 2009 Aug;86(4):227-327.)	Cheilognathoschisis
C61510	C124310		Fetal Pathology Findings Result	CLEFT		A split or fissure of a facial structure.	Cleft
C124514	C124310		Fetal Pathology Findings Result	COLLAPSED LUMEN		A finding in which the walls of a tube or tubular organ have contorted or buckled into its cavity or channel. (NCI)	Collapsed Lumen
C124515	C124310		Fetal Pathology Findings Result	COLORED MATERIAL		Presence of colored substance. (Makris S, Solomon HM, Clark R, Shiota K, Barbellion S, Buschmann J, Ema M, Fujiwara M, Grote K, Hazelden KP, Hew KW, Horimoto M, Ooshima Y, Parkinson M, Wise LD. Terminology of developmental abnormalities in common laboratory mammals (Version 2). Part B. Birth Defects Res B Dev Reprod Toxicol. 2009 Aug;86(4):227-327.)	Red-Brown Material
C186229	C124310		Fetal Pathology Findings Result	COMMON CAROTID TRUNK		Common origin for left subclavian and left carotid arteries.	Common Carotid Trunk
C124516	C124310		Fetal Pathology Findings Result	COMMON ORIGIN		An indication that anatomical structures, typically blood vessels, are arising from the same location.	Vessel Common Origin
C98903	C124310		Fetal Pathology Findings Result	CONJOINED TWINS		Monozygotic twins with variable incomplete separation into two during cleavage or early stages of embryogenesis. (Makris S, Solomon HM, Clark R, Shiota K, Barbellion S, Buschmann J, Ema M, Fujiwara M, Grote K, Hazelden KP, Hew KW, Horimoto M, Ooshima Y, Parkinson M, Wise LD. Terminology of developmental abnormalities in common laboratory mammals (Version 2). Part B. Birth Defects Res B Dev Reprod Toxicol. 2009 Aug;86(4):227-327.)	Conjoined Twins
C61301	C124310		Fetal Pathology Findings Result	CONVOLUTED	Coiled; Twisted	Folded, curved and/or tortuous windings.	Convolution
C124517	C124310		Fetal Pathology Findings Result	CRANIAL MENINGOCELE		Herniation of meninges through a defect in skull. (Makris S, Solomon HM, Clark R, Shiota K, Barbellion S, Buschmann J, Ema M, Fujiwara M, Grote K, Hazelden KP, Hew KW, Horimoto M, Ooshima Y, Parkinson M, Wise LD. Terminology of developmental abnormalities in common laboratory mammals (Version 2). Part B. Birth Defects Res B Dev Reprod Toxicol. 2009 Aug;86(4):227-327.)	Cranial Meningocele
C124518	C124310		Fetal Pathology Findings Result	CRANIOFENESTRIA		Multiple unossified area(s) of the cranium. (Makris S, Solomon HM, Clark R, Shiota K, Barbellion S, Buschmann J, Ema M, Fujiwara M, Grote K, Hazelden KP, Hew KW, Horimoto M, Ooshima Y, Parkinson M, Wise LD. Terminology of developmental abnormalities in common laboratory mammals (Version 2). Part B. Birth Defects Res B Dev Reprod Toxicol. 2009 Aug;86(4):227-327.)	Craniofenestria
C98907	C124310		Fetal Pathology Findings Result	CRANIORACHISCHISIS	Cranial Rachischisis	A congenital fissure of both the skull and vertebral column. (Saunders. (1988). Dorland's illustrated medical dictionary. (27th ed.). Philadelphia)	Craniorachischisis
C124519	C124310		Fetal Pathology Findings Result	CRANIOSCHISIS		Fissure of the cranial region of the head with varying degrees of the brain exposed. (Makris S, Solomon HM, Clark R, Shiota K, Barbellion S, Buschmann J, Ema M, Fujiwara M, Grote K, Hazelden KP, Hew KW, Horimoto M, Ooshima Y, Parkinson M, Wise LD. Terminology of developmental abnormalities in common laboratory mammals (Version 2). Part B. Birth Defects Res B Dev Reprod Toxicol. 2009 Aug;86(4):227-327.)	Cranioschisis
C84655	C124310		Fetal Pathology Findings Result	CRANIOSYNOSTOSIS		Premature closure of cranial sutures with fusion of bone, resulting in small maldeveloped skull; used to describe multiple skull bone fusions. (Makris S, Solomon HM, Clark R, Shiota K, Barbellion S, Buschmann J, Ema M, Fujiwara M, Grote K, Hazelden KP, Hew KW, Horimoto M, Ooshima Y, Parkinson M, Wise LD. Terminology of developmental abnormalities in common laboratory mammals (Version 2). Part B. Birth Defects Res B Dev Reprod Toxicol. 2009 Aug;86(4):227-327.)	Craniosynostosis
C124520	C124310		Fetal Pathology Findings Result	CRYPTOPHTHALMIA	Cryptophthalmos	Skin continuous over eye(s) without formation of eyelid(s). (Makris S, Solomon HM, Clark R, Shiota K, Barbellion S, Buschmann J, Ema M, Fujiwara M, Grote K, Hazelden KP, Hew KW, Horimoto M, Ooshima Y, Parkinson M, Wise LD. Terminology of developmental abnormalities in common laboratory mammals (Version 2). Part B. Birth Defects Res B Dev Reprod Toxicol. 2009 Aug;86(4):227-327.)	Cryptophthalmia
C176473	C124310		Fetal Pathology Findings Result	CURLED	Curly	Curved into nearly a full circle, or coiled. (Makris S, Solomon HM, Clark R, Shiota K, Barbellion S, Buschmann J, Ema M, Fujiwara M, Grote K, Hazelden KP, Hew KW, Horimoto M, Ooshima Y, Parkinson M, Wise LD. Terminology of developmental abnormalities in common laboratory mammals (Version 2). Part B. Birth Defects Res B Dev Reprod Toxicol. 2009 Aug;86(4):227-327.)	Curly
C124522	C124310		Fetal Pathology Findings Result	CYCLOPIA	Monophthalmia; Single Eyeball; Synophthalmia	Single median orbit; eyeball(s) can be absent, completely or incompletely fused. (Makris S, Solomon HM, Clark R, Shiota K, Barbellion S, Buschmann J, Ema M, Fujiwara M, Grote K, Hazelden KP, Hew KW, Horimoto M, Ooshima Y, Parkinson M, Wise LD. Terminology of developmental abnormalities in common laboratory mammals (Version 2). Part B. Birth Defects Res B Dev Reprod Toxicol. 2009 Aug;86(4):227-327.).	Cyclopia
C2978	C124310		Fetal Pathology Findings Result	CYST		A sac-like closed pocket of tissue that may be empty or may be filled with fluid, gas, semisolid, or amorphous material. It typically has an outer epithelial-lined capsule.	Cyst
C124523	C124310		Fetal Pathology Findings Result	DECREASED ANOGENITAL DISTANCE		Shortened distance between anus and genital tubercle. (Makris S, Solomon HM, Clark R, Shiota K, Barbellion S, Buschmann J, Ema M, Fujiwara M, Grote K, Hazelden KP, Hew KW, Horimoto M, Ooshima Y, Parkinson M, Wise LD. Terminology of developmental abnormalities in common laboratory mammals (Version 2). Part B. Birth Defects Res B Dev Reprod Toxicol. 2009 Aug;86(4):227-327.)	Anogenital Distance Decreased
C43429	C124310		Fetal Pathology Findings Result	DEFECT		Imperfection or abnormality that may affect form or function.	Defect
C124639	C124310		Fetal Pathology Findings Result	DEPRESSION		Nonpatent localized recess in a structure or tissue. (Makris S, Solomon HM, Clark R, Shiota K, Barbellion S, Buschmann J, Ema M, Fujiwara M, Grote K, Hazelden KP, Hew KW, Horimoto M, Ooshima Y, Parkinson M, Wise LD. Terminology of developmental abnormalities in common laboratory mammals (Version 2). Part B. Birth Defects Res B Dev Reprod Toxicol. 2009 Aug;86(4):227-327.)	Depression
C124524	C124310		Fetal Pathology Findings Result	DETACHED	Floating; Non-articulated	Physically separated or not connected. (NCI)	Detached
C84669	C124310		Fetal Pathology Findings Result	DEXTROCARDIA		A congenital abnormality in which the heart is located in the right side of the chest.	Dextrocardia
C113136	C124310		Fetal Pathology Findings Result	DILATATION	Dilation	Expansion of the cavity, ducts or lumen of a hollow organ or vessel.	Dilation
C124525	C124310		Fetal Pathology Findings Result	DISCOLORED		Not the normal color. (Makris S, Solomon HM, Clark R, Shiota K, Barbellion S, Buschmann J, Ema M, Fujiwara M, Grote K, Hazelden KP, Hew KW, Horimoto M, Ooshima Y, Parkinson M, Wise LD. Terminology of developmental abnormalities in common laboratory mammals (Version 2). Part B. Birth Defects Res B Dev Reprod Toxicol. 2009 Aug;86(4):227-327.)	Discoloration
C186230	C124310		Fetal Pathology Findings Result	DISTAL OSSIFICATION SITE		Ossification site(s) in the cartilaginous distal region of the bone. (Makris S, Solomon HM, Clark R, Shiota K, Barbellion S, Buschmann J, Ema M, Fujiwara M, Grote K, Hazelden KP, Hew KW, Horimoto M, Ooshima Y, Parkinson M, Wise LD. Terminology of developmental abnormalities in common laboratory mammals (Version 2). Part B. Birth Defects Res B Dev Reprod Toxicol. 2009 Aug;86(4):227-327.)	Distal Ossification Site
C124526	C124310		Fetal Pathology Findings Result	DISTENDED		Enlarged or expanded organ due to an increase of the contents. (Makris S, Solomon HM, Clark R, Shiota K, Barbellion S, Buschmann J, Ema M, Fujiwara M, Grote K, Hazelden KP, Hew KW, Horimoto M, Ooshima Y, Parkinson M, Wise LD. Terminology of developmental abnormalities in common laboratory mammals (Version 2). Part B. Birth Defects Res B Dev Reprod Toxicol. 2009 Aug;86(4):227-327.)	Distended
C26753	C124310		Fetal Pathology Findings Result	DIVERTICULUM		A sac-like protrusion in the wall of a hollow organ or tissue.	Diverticulum
C176474	C124310		Fetal Pathology Findings Result	DOMED		The appearance of a structure or body part that is more elevated and rounded than normal. (Makris S, Solomon HM, Clark R, Shiota K, Barbellion S, Buschmann J, Ema M, Fujiwara M, Grote K, Hazelden KP, Hew KW, Horimoto M, Ooshima Y, Parkinson M, Wise LD. Terminology of developmental abnormalities in common laboratory mammals (Version 2). Part B. Birth Defects Res B Dev Reprod Toxicol. 2009 Aug;86(4):227-327.)	Domed
C98916	C124310		Fetal Pathology Findings Result	DOUBLE OUTLET RIGHT VENTRICLE		Pulmonary trunk and aorta arise from the right ventricle. (Makris S, Solomon HM, Clark R, Shiota K, Barbellion S, Buschmann J, Ema M, Fujiwara M, Grote K, Hazelden KP, Hew KW, Horimoto M, Ooshima Y, Parkinson M, Wise LD. Terminology of developmental abnormalities in common laboratory mammals (Version 2). Part B. Birth Defects Res B Dev Reprod Toxicol. 2009 Aug;86(4):227-327.)	Double Outlet Right Ventricle
C124528	C124310		Fetal Pathology Findings Result	DUMBBELL OSSIFICATION		Two approximately spherical ossification sites attached at or near the mid-line by an ossified bridge. Commonly used for structures arising from two primary centers (e.g., sternebrae, vertebral centra). Applies only to the ossification sites. (Makris S, Solomon HM, Clark R, Shiota K, Barbellion S, Buschmann J, Ema M, Fujiwara M, Grote K, Hazelden KP, Hew KW, Horimoto M, Ooshima Y, Parkinson M, Wise LD. Terminology of developmental abnormalities in common laboratory mammals (Version 2). Part B. Birth Defects Res B Dev Reprod Toxicol. 2009 Aug;86(4):227-327.)	Dumbbell Ossification
C185903	C124310		Fetal Pathology Findings Result	DUPLICATED		Of, or pertaining to, a copy of an entity that is of similar shape or size.	Duplicate
C3002	C124310		Fetal Pathology Findings Result	EDEMA		Excessive amount of watery fluid in tissues or cavities, generally characterized microscopically as clear spaces separating tissue components.	Edema
C176475	C124310		Fetal Pathology Findings Result	ERUPTED		The emergence of a structure or body part.	Eruption
C124529	C124310		Fetal Pathology Findings Result	ETHMOCEPHALY		Some degree of cyclopia in which the eyes may be closely set but the snout is small. (Makris S, Solomon HM, Clark R, Shiota K, Barbellion S, Buschmann J, Ema M, Fujiwara M, Grote K, Hazelden KP, Hew KW, Horimoto M, Ooshima Y, Parkinson M, Wise LD. Terminology of developmental abnormalities in common laboratory mammals (Version 2). Part B. Birth Defects Res B Dev Reprod Toxicol. 2009 Aug;86(4):227-327.)	Ethmocephaly
C124530	C124310		Fetal Pathology Findings Result	EVAGINATION		A finding that indicates that an anatomic structure is partially or completely turned inside out.	Evagination
C185902	C124310		Fetal Pathology Findings Result	EVENTRATION		A localized protrusion of a structure into an adjacent structure or cavity.	Eventration
C124531	C124310		Fetal Pathology Findings Result	EXENCEPHALY		Brain protrudes outside the skull due to absence of all or part of the cranial vault. (Makris S, Solomon HM, Clark R, Shiota K, Barbellion S, Buschmann J, Ema M, Fujiwara M, Grote K, Hazelden KP, Hew KW, Horimoto M, Ooshima Y, Parkinson M, Wise LD. Terminology of developmental abnormalities in common laboratory mammals (Version 2). Part B. Birth Defects Res B Dev Reprod Toxicol. 2009 Aug;86(4):227-327.)	Exencephaly
C124532	C124310		Fetal Pathology Findings Result	EXTERNAL AURAL FISTULA		An opening to a cyst produced by a persistent lateral cervical sinus or reduplicated 1st pharyngeal cleft usually located ventral to the ear. (Makris S, Solomon HM, Clark R, Shiota K, Barbellion S, Buschmann J, Ema M, Fujiwara M, Grote K, Hazelden KP, Hew KW, Horimoto M, Ooshima Y, Parkinson M, Wise LD. Terminology of developmental abnormalities in common laboratory mammals (Version 2). Part B. Birth Defects Res B Dev Reprod Toxicol. 2009 Aug;86(4):227-327.)	External Auditory Canal Fistula
C124533	C124310		Fetal Pathology Findings Result	EXTERNALIZED HEART	Ectopia Cordis; Exocardia	Heart displaced outside thoracic cavity. (Makris S, Solomon HM, Clark R, Shiota K, Barbellion S, Buschmann J, Ema M, Fujiwara M, Grote K, Hazelden KP, Hew KW, Horimoto M, Ooshima Y, Parkinson M, Wise LD. Terminology of developmental abnormalities in common laboratory mammals (Version 2). Part B. Birth Defects Res B Dev Reprod Toxicol. 2009 Aug;86(4):227-327.)	Externalized Heart
C186231	C124310		Fetal Pathology Findings Result	EXTRACAPSULAR TISSUE		The presence of tissue situated outside of a capsule.	Extracapsular Tissue
C3045	C124310		Fetal Pathology Findings Result	FISTULA		Abnormal passage or communication between two normally unconnected structures, body cavities, or the surface of the body. (Makris S, Solomon HM, Clark R, Shiota K, Barbellion S, Buschmann J, Ema M, Fujiwara M, Grote K, Hazelden KP, Hew KW, Horimoto M, Ooshima Y, Parkinson M, Wise LD. Terminology of developmental abnormalities in common laboratory mammals (Version 2). Part B. Birth Defects Res B Dev Reprod Toxicol. 2009 Aug;86(4):227-327.)	Fistula
C124534	C124310		Fetal Pathology Findings Result	FLESHY TAB		Small tag of tissue without bony support.	Fleshy Tab
C124535	C124310		Fetal Pathology Findings Result	FLUID FILLED		A finding indicating that that an anatomic space or cavity is filled with fluid.	Fluid-Filled
C124536	C124310		Fetal Pathology Findings Result	FRAGMENT		A division into several small pieces.	Fragmented
C124538	C124310		Fetal Pathology Findings Result	FUSED TO FLOOR OF MOUTH	Ankyloglossia	Shortness or absence of the frenulum of the tongue; tongue fused to the floor of the mouth. (Makris S, Solomon HM, Clark R, Shiota K, Barbellion S, Buschmann J, Ema M, Fujiwara M, Grote K, Hazelden KP, Hew KW, Horimoto M, Ooshima Y, Parkinson M, Wise LD. Terminology of developmental abnormalities in common laboratory mammals (Version 2). Part B. Birth Defects Res B Dev Reprod Toxicol. 2009 Aug;86(4):227-327.)	Ankyloglossia
C124537	C124310		Fetal Pathology Findings Result	FUSED		Joined or blended together. (Makris S, Solomon HM, Clark R, Shiota K, Barbellion S, Buschmann J, Ema M, Fujiwara M, Grote K, Hazelden KP, Hew KW, Horimoto M, Ooshima Y, Parkinson M, Wise LD. Terminology of developmental abnormalities in common laboratory mammals (Version 2). Part B. Birth Defects Res B Dev Reprod Toxicol. 2009 Aug;86(4):227-327.)	Fused
C84725	C124310		Fetal Pathology Findings Result	GASTROSCHISIS	Eventration	Fissure of abdominal wall, not involving the umbilicus, and usually accompanied by protrusion of viscera which may or may not be covered by a membranous sac. (Makris S, Solomon HM, Clark R, Shiota K, Barbellion S, Buschmann J, Ema M, Fujiwara M, Grote K, Hazelden KP, Hew KW, Horimoto M, Ooshima Y, Parkinson M, Wise LD. Terminology of developmental abnormalities in common laboratory mammals (Version 2). Part B. Birth Defects Res B Dev Reprod Toxicol. 2009 Aug;86(4):227-327.)	Gastroschisis
C124539	C124310		Fetal Pathology Findings Result	HEMICENTRIC		Absence of either hemicentrum of a centrum. Structural change involving the bone precursor. (Makris S, Solomon HM, Clark R, Shiota K, Barbellion S, Buschmann J, Ema M, Fujiwara M, Grote K, Hazelden KP, Hew KW, Horimoto M, Ooshima Y, Parkinson M, Wise LD. Terminology of developmental abnormalities in common laboratory mammals (Version 2). Part B. Birth Defects Res B Dev Reprod Toxicol. 2009 Aug;86(4):227-327.)	Hemicentric
C34674	C124310		Fetal Pathology Findings Result	HEMIMELIA		Absence or shortening of the distal segment(s) of limbs. (Makris S, Solomon HM, Clark R, Shiota K, Barbellion S, Buschmann J, Ema M, Fujiwara M, Grote K, Hazelden KP, Hew KW, Horimoto M, Ooshima Y, Parkinson M, Wise LD. Terminology of developmental abnormalities in common laboratory mammals (Version 2). Part B. Birth Defects Res B Dev Reprod Toxicol. 2009 Aug;86(4):227-327.)	Hemimelia
C124540	C124310		Fetal Pathology Findings Result	HEMISTERNEBRA		Absent sternebral hemicenter. (Makris S, Solomon HM, Clark R, Shiota K, Barbellion S, Buschmann J, Ema M, Fujiwara M, Grote K, Hazelden KP, Hew KW, Horimoto M, Ooshima Y, Parkinson M, Wise LD. Terminology of developmental abnormalities in common laboratory mammals (Version 2). Part B. Birth Defects Res B Dev Reprod Toxicol. 2009 Aug;86(4):227-327.)	Hemisternebra
C124541	C124310		Fetal Pathology Findings Result	HEMIVERTEBRA		Absence of a lateral half (arch + hemicentrum) of a vertebra. Structural change involving the bone precursor. (Makris S, Solomon HM, Clark R, Shiota K, Barbellion S, Buschmann J, Ema M, Fujiwara M, Grote K, Hazelden KP, Hew KW, Horimoto M, Ooshima Y, Parkinson M, Wise LD. Terminology of developmental abnormalities in common laboratory mammals (Version 2). Part B. Birth Defects Res B Dev Reprod Toxicol. 2009 Aug;86(4):227-327.)	Hemivertebra
C26791	C124310		Fetal Pathology Findings Result	HEMORRHAGE		The presence of extravascular erythrocytes.	Hemorrhage
C85207	C124310		Fetal Pathology Findings Result	HERMAPHRODITISM		A rare condition characterized by the unequivocal presence of both testicular and ovarian tissues in a gonad.	True Hermaphroditism
C34685	C124310		Fetal Pathology Findings Result	HERNIA		The protrusion of part of an organ or fibroadipose tissue through an abnormal opening. (NCI)	Hernia
C124542	C124310		Fetal Pathology Findings Result	HIGH-ARCHED		Arched structure higher than normal, extends further upward.	High Arch
C124640	C124310		Fetal Pathology Findings Result	HOLE		A perforation in a tissue or organ, such as a discrete area of absent ossification and bone precursor.	Hole
C124543	C124310		Fetal Pathology Findings Result	HOLORACHISCHISIS		Fissure of the entire spinal column. (Makris S, Solomon HM, Clark R, Shiota K, Barbellion S, Buschmann J, Ema M, Fujiwara M, Grote K, Hazelden KP, Hew KW, Horimoto M, Ooshima Y, Parkinson M, Wise LD. Terminology of developmental abnormalities in common laboratory mammals (Version 2). Part B. Birth Defects Res B Dev Reprod Toxicol. 2009 Aug;86(4):227-327.)	Holorachischisis
C176476	C124310		Fetal Pathology Findings Result	HOOKED		Approximately 180 degree bend or curve of a structure or body part. (Makris S, Solomon HM, Clark R, Shiota K, Barbellion S, Buschmann J, Ema M, Fujiwara M, Grote K, Hazelden KP, Hew KW, Horimoto M, Ooshima Y, Parkinson M, Wise LD. Terminology of developmental abnormalities in common laboratory mammals (Version 2). Part B. Birth Defects Res B Dev Reprod Toxicol. 2009 Aug;86(4):227-327.)	Hooked
C98951	C124310		Fetal Pathology Findings Result	HYPEREXTENSION		The excessive extension or straightening of a limb or a joint. (Makris S, Solomon HM, Clark R, Shiota K, Barbellion S, Buschmann J, Ema M, Fujiwara M, Grote K, Hazelden KP, Hew KW, Horimoto M, Ooshima Y, Parkinson M, Wise LD. Terminology of developmental abnormalities in common laboratory mammals (Version 2). Part B. Birth Defects Res B Dev Reprod Toxicol. 2009 Aug;86(4):227-327.)	Hyperextension
C124545	C124310		Fetal Pathology Findings Result	HYPERFLEXION		The excessive flexion or bending of a limb or a joint. (Makris S, Solomon HM, Clark R, Shiota K, Barbellion S, Buschmann J, Ema M, Fujiwara M, Grote K, Hazelden KP, Hew KW, Horimoto M, Ooshima Y, Parkinson M, Wise LD. Terminology of developmental abnormalities in common laboratory mammals (Version 2). Part B. Birth Defects Res B Dev Reprod Toxicol. 2009 Aug;86(4):227-327.)	Hyperflexion
C120893	C124310		Fetal Pathology Findings Result	HYPOPLASIA		Incomplete or underdevelopment of a tissue or organ. (NCI)	Hypoplasia
C40341	C124310		Fetal Pathology Findings Result	HYPOSPADIAS		Urethra opening on the underside of the penis or on the perineum. (Makris S, Solomon HM, Clark R, Shiota K, Barbellion S, Buschmann J, Ema M, Fujiwara M, Grote K, Hazelden KP, Hew KW, Horimoto M, Ooshima Y, Parkinson M, Wise LD. Terminology of developmental abnormalities in common laboratory mammals (Version 2). Part B. Birth Defects Res B Dev Reprod Toxicol. 2009 Aug;86(4):227-327.)	Hypospadias
C176477	C124310		Fetal Pathology Findings Result	IMPERFORATE	Not Perforated	Absence or closure of a normal opening. (Makris S, Solomon HM, Clark R, Shiota K, Barbellion S, Buschmann J, Ema M, Fujiwara M, Grote K, Hazelden KP, Hew KW, Horimoto M, Ooshima Y, Parkinson M, Wise LD. Terminology of developmental abnormalities in common laboratory mammals (Version 2). Part B. Birth Defects Res B Dev Reprod Toxicol. 2009 Aug;86(4):227-327.)	Imperforate
C124546	C124310		Fetal Pathology Findings Result	INCOMPLETE CHONDROGENESIS		Incomplete formation of cartilage. (NCI)	Incomplete Chondrogenesis
C124547	C124310		Fetal Pathology Findings Result	INCOMPLETE OSSIFICATION		Partial ossification at a site that usually has a more advanced degree of ossification. (Makris S, Solomon HM, Clark R, Shiota K, Barbellion S, Buschmann J, Ema M, Fujiwara M, Grote K, Hazelden KP, Hew KW, Horimoto M, Ooshima Y, Parkinson M, Wise LD. Terminology of developmental abnormalities in common laboratory mammals (Version 2). Part B. Birth Defects Res B Dev Reprod Toxicol. 2009 Aug;86(4):227-327.)	Incomplete Ossification
C124548	C124310		Fetal Pathology Findings Result	INCREASED ANOGENITAL DISTANCE		Increased distance between anus and genital tubercle. (Makris S, Solomon HM, Clark R, Shiota K, Barbellion S, Buschmann J, Ema M, Fujiwara M, Grote K, Hazelden KP, Hew KW, Horimoto M, Ooshima Y, Parkinson M, Wise LD. Terminology of developmental abnormalities in common laboratory mammals (Version 2). Part B. Birth Defects Res B Dev Reprod Toxicol. 2009 Aug;86(4):227-327.)	Anogenital Distance Increased
C124549	C124310		Fetal Pathology Findings Result	INIENCEPHALY		Exposure of occipital brain and upper spinal cord tissue involving extreme retroflection of the head. (Makris S, Solomon HM, Clark R, Shiota K, Barbellion S, Buschmann J, Ema M, Fujiwara M, Grote K, Hazelden KP, Hew KW, Horimoto M, Ooshima Y, Parkinson M, Wise LD. Terminology of developmental abnormalities in common laboratory mammals (Version 2). Part B. Birth Defects Res B Dev Reprod Toxicol. 2009 Aug;86(4):227-327.)	Iniencephaly
C124550	C124310		Fetal Pathology Findings Result	INTERRUPTED	Discontinuous	Discontinuity of a longitudinal structure, e.g., blood vessels, ribs, etc. (Makris S, Solomon HM, Clark R, Shiota K, Barbellion S, Buschmann J, Ema M, Fujiwara M, Grote K, Hazelden KP, Hew KW, Horimoto M, Ooshima Y, Parkinson M, Wise LD. Terminology of developmental abnormalities in common laboratory mammals (Version 2). Part B. Birth Defects Res B Dev Reprod Toxicol. 2009 Aug;86(4):227-327.)	Discontinuous Anatomic Feature
C124551	C124310		Fetal Pathology Findings Result	ISOLATED OSSIFICATION SITE		Ossification site within the margins of a normal bone precursor but separated from the main ossified (alizarin red stained) area. Does not imply any change to the bone precursor. (Makris S, Solomon HM, Clark R, Shiota K, Barbellion S, Buschmann J, Ema M, Fujiwara M, Grote K, Hazelden KP, Hew KW, Horimoto M, Ooshima Y, Parkinson M, Wise LD. Terminology of developmental abnormalities in common laboratory mammals (Version 2). Part B. Birth Defects Res B Dev Reprod Toxicol. 2009 Aug;86(4):227-327.)	Isolated Ossification Site
C176478	C124310		Fetal Pathology Findings Result	KINKED		A sharp bend.	Kinked
C34754	C124310		Fetal Pathology Findings Result	KYPHOSIS		Increased dorsal convexity in the curvature of the spinal column as viewed from the side. (Makris S, Solomon HM, Clark R, Shiota K, Barbellion S, Buschmann J, Ema M, Fujiwara M, Grote K, Hazelden KP, Hew KW, Horimoto M, Ooshima Y, Parkinson M, Wise LD. Terminology of developmental abnormalities in common laboratory mammals (Version 2). Part B. Birth Defects Res B Dev Reprod Toxicol. 2009 Aug;86(4):227-327.)	Kyphosis
C49508	C124310		Fetal Pathology Findings Result	LARGE		Of considerable or relatively great size, extent, or capacity. (NCI)	Large
C124553	C124310		Fetal Pathology Findings Result	LEFT-SIDED		Transposition to the left side, which is considered abnormal.	Left-Sided
C3824	C124310		Fetal Pathology Findings Result	LESION		A localized pathological or traumatic structural change, damage, deformity, or discontinuity of tissue, organ, or body part. (NCI)	Lesion
C111647	C124310		Fetal Pathology Findings Result	LEVOCARDIA		Left-sided heart in the presence of situs inversus.	Levocardia
C25248	C124310		Fetal Pathology Findings Result	LONG	Elongated	Greater than the normal or expected length. (Makris S, Solomon HM, Clark R, Shiota K, Barbellion S, Buschmann J, Ema M, Fujiwara M, Grote K, Hazelden KP, Hew KW, Horimoto M, Ooshima Y, Parkinson M, Wise LD. Terminology of developmental abnormalities in common laboratory mammals (Version 2). Part B. Birth Defects Res B Dev Reprod Toxicol. 2009 Aug;86(4):227-327.)	Long
C34787	C124310		Fetal Pathology Findings Result	LORDOSIS		Increased dorsal concavity in the curvature of the spinal column as viewed from the side. (Makris S, Solomon HM, Clark R, Shiota K, Barbellion S, Buschmann J, Ema M, Fujiwara M, Grote K, Hazelden KP, Hew KW, Horimoto M, Ooshima Y, Parkinson M, Wise LD. Terminology of developmental abnormalities in common laboratory mammals (Version 2). Part B. Birth Defects Res B Dev Reprod Toxicol. 2009 Aug;86(4):227-327.)	Lordosis
C158330	C124310		Fetal Pathology Findings Result	LUMBAR RIB		Presence of rib formation in the lumbar region.	Lumbar Rib
C35724	C124310		Fetal Pathology Findings Result	LUXATED	Dislocated	A displacement of a bone from its normal position in the joint.	Dislocation
C124554	C124310		Fetal Pathology Findings Result	MALPOSITIONED		Not occurring in the proper position and/or orientation. (Makris S, Solomon HM, Clark R, Shiota K, Barbellion S, Buschmann J, Ema M, Fujiwara M, Grote K, Hazelden KP, Hew KW, Horimoto M, Ooshima Y, Parkinson M, Wise LD. Terminology of developmental abnormalities in common laboratory mammals (Version 2). Part B. Birth Defects Res B Dev Reprod Toxicol. 2009 Aug;86(4):227-327.)	Malpositioned
C124555	C124310		Fetal Pathology Findings Result	MALROTATED		Structure rotated from proper position and/or orientation (outward or inward). (Makris S, Solomon HM, Clark R, Shiota K, Barbellion S, Buschmann J, Ema M, Fujiwara M, Grote K, Hazelden KP, Hew KW, Horimoto M, Ooshima Y, Parkinson M, Wise LD. Terminology of developmental abnormalities in common laboratory mammals (Version 2). Part B. Birth Defects Res B Dev Reprod Toxicol. 2009 Aug;86(4):227-327.)	Malrotated
C124557	C124310		Fetal Pathology Findings Result	MENINGOENCEPHALOCELE	Encephalomeningocele	Herniation of brain and meninges through a cranial opening. (Makris S, Solomon HM, Clark R, Shiota K, Barbellion S, Buschmann J, Ema M, Fujiwara M, Grote K, Hazelden KP, Hew KW, Horimoto M, Ooshima Y, Parkinson M, Wise LD. Terminology of developmental abnormalities in common laboratory mammals (Version 2). Part B. Birth Defects Res B Dev Reprod Toxicol. 2009 Aug;86(4):227-327.)	Encephalomeningocele
C124558	C124310		Fetal Pathology Findings Result	MENINGOHYDROENCEPHALOCELE		Herniation of brain, cerebral ventricle, and meninges through a defect in skull. (Makris S, Solomon HM, Clark R, Shiota K, Barbellion S, Buschmann J, Ema M, Fujiwara M, Grote K, Hazelden KP, Hew KW, Horimoto M, Ooshima Y, Parkinson M, Wise LD. Terminology of developmental abnormalities in common laboratory mammals (Version 2). Part B. Birth Defects Res B Dev Reprod Toxicol. 2009 Aug;86(4):227-327.)	Meningohydroencephalocele
C124559	C124310		Fetal Pathology Findings Result	MISALIGNED	Malaligned	Abnormal position of structures in relation to one another on opposite sides of a dividing line or about the center or axis. (Makris S, Solomon HM, Clark R, Shiota K, Barbellion S, Buschmann J, Ema M, Fujiwara M, Grote K, Hazelden KP, Hew KW, Horimoto M, Ooshima Y, Parkinson M, Wise LD. Terminology of developmental abnormalities in common laboratory mammals (Version 2). Part B. Birth Defects Res B Dev Reprod Toxicol. 2009 Aug;86(4):227-327.)	Misalignment
C186232	C124310		Fetal Pathology Findings Result	MISSHAPEN OSSIFICATION SITE		Abnormally shaped ossification site(s). (Makris S, Solomon HM, Clark R, Shiota K, Barbellion S, Buschmann J, Ema M, Fujiwara M, Grote K, Hazelden KP, Hew KW, Horimoto M, Ooshima Y, Parkinson M, Wise LD. Terminology of developmental abnormalities in common laboratory mammals (Version 2). Part B. Birth Defects Res B Dev Reprod Toxicol. 2009 Aug;86(4):227-327.)	Misshapen Ossification Site
C124560	C124310		Fetal Pathology Findings Result	MISSHAPEN		Abnormally shaped. (Makris S, Solomon HM, Clark R, Shiota K, Barbellion S, Buschmann J, Ema M, Fujiwara M, Grote K, Hazelden KP, Hew KW, Horimoto M, Ooshima Y, Parkinson M, Wise LD. Terminology of developmental abnormalities in common laboratory mammals (Version 2). Part B. Birth Defects Res B Dev Reprod Toxicol. 2009 Aug;86(4):227-327.)	Misshapen
C87095	C124310		Fetal Pathology Findings Result	MOTTLED		Spotting with patches of discoloration of an organ or tissue. (Makris S, Solomon HM, Clark R, Shiota K, Barbellion S, Buschmann J, Ema M, Fujiwara M, Grote K, Hazelden KP, Hew KW, Horimoto M, Ooshima Y, Parkinson M, Wise LD. Terminology of developmental abnormalities in common laboratory mammals (Version 2). Part B. Birth Defects Res B Dev Reprod Toxicol. 2009 Aug;86(4):227-327.)	Mottling
C124561	C124310		Fetal Pathology Findings Result	MULTIPLE MALFORMATIONS		Used when Region/Organ/Structure has multiple malformations and individual descriptions would be unnecessarily complex. (Makris S, Solomon HM, Clark R, Shiota K, Barbellion S, Buschmann J, Ema M, Fujiwara M, Grote K, Hazelden KP, Hew KW, Horimoto M, Ooshima Y, Parkinson M, Wise LD. Terminology of developmental abnormalities in common laboratory mammals (Version 2). Part B. Birth Defects Res B Dev Reprod Toxicol. 2009 Aug;86(4):227-327.)	Multiple Malformations
C124562	C124310		Fetal Pathology Findings Result	MULTIPLE VARIATIONS		Used when Region/Organ/Structure has multiple variations and individual descriptions would be unnecessarily complex. (Makris S, Solomon HM, Clark R, Shiota K, Barbellion S, Buschmann J, Ema M, Fujiwara M, Grote K, Hazelden KP, Hew KW, Horimoto M, Ooshima Y, Parkinson M, Wise LD. Terminology of developmental abnormalities in common laboratory mammals (Version 2). Part B. Birth Defects Res B Dev Reprod Toxicol. 2009 Aug;86(4):227-327.)	Multiple Abnormalities
C124564	C124310		Fetal Pathology Findings Result	NARROW	Coarctation; Constricted	Less than the normal side to side dimension. (Makris S, Solomon HM, Clark R, Shiota K, Barbellion S, Buschmann J, Ema M, Fujiwara M, Grote K, Hazelden KP, Hew KW, Horimoto M, Ooshima Y, Parkinson M, Wise LD. Terminology of developmental abnormalities in common laboratory mammals (Version 2). Part B. Birth Defects Res B Dev Reprod Toxicol. 2009 Aug;86(4):227-327.)	Narrow
C3280	C124310		Fetal Pathology Findings Result	NODULE		A small lump, swelling or collection of tissue. (NCI)	Nodule
C124565	C124310		Fetal Pathology Findings Result	NOT ERUPTED TOOTH		Tooth not emerged.	Tooth Not Erupted
C124566	C124310		Fetal Pathology Findings Result	NOT FUSED		Not joined to form a single entity.	Not Fused
C92839	C124310		Fetal Pathology Findings Result	OLIGOHYDRAMNIOS	Reduced Amniotic Fluid	Reduced or less than normal amount of amniotic fluid. (Makris S, Solomon HM, Clark R, Shiota K, Barbellion S, Buschmann J, Ema M, Fujiwara M, Grote K, Hazelden KP, Hew KW, Horimoto M, Ooshima Y, Parkinson M, Wise LD. Terminology of developmental abnormalities in common laboratory mammals (Version 2). Part B. Birth Defects Res B Dev Reprod Toxicol. 2009 Aug;86(4):227-327.)	Oligohydramnios
C98997	C124310		Fetal Pathology Findings Result	OMPHALOCELE	Eventration; Exomphalos	A defect in the abdominal wall at the umbilicus, through which the intestines and other viscera protrude. These may or may not be covered by a thin, translucent sac. (Makris S, Solomon HM, Clark R, Shiota K, Barbellion S, Buschmann J, Ema M, Fujiwara M, Grote K, Hazelden KP, Hew KW, Horimoto M, Ooshima Y, Parkinson M, Wise LD. Terminology of developmental abnormalities in common laboratory mammals (Version 2). Part B. Birth Defects Res B Dev Reprod Toxicol. 2009 Aug;86(4):227-327.)	Omphalocele
C71596	C124310		Fetal Pathology Findings Result	OPACITY		The quality of being opaque to a degree; the degree to which something reduces the passage of light. (NCI)	Opacity
C49069	C124310		Fetal Pathology Findings Result	OPEN		Visible; not closed.	Open
C124568	C124310		Fetal Pathology Findings Result	OTOCEPHALY		Absence or extreme underdevelopment of the lower jaw, producing closeness of the ears below the face. (Makris S, Solomon HM, Clark R, Shiota K, Barbellion S, Buschmann J, Ema M, Fujiwara M, Grote K, Hazelden KP, Hew KW, Horimoto M, Ooshima Y, Parkinson M, Wise LD. Terminology of developmental abnormalities in common laboratory mammals (Version 2). Part B. Birth Defects Res B Dev Reprod Toxicol. 2009 Aug;86(4):227-327.)	Otocephaly
C50685	C124310		Fetal Pathology Findings Result	PALE		An unusual or extreme paleness, state of decreased coloration.	Pallor
C186233	C124310		Fetal Pathology Findings Result	PARTIALLY DUPLICATED		Of, or pertaining to, an entity that is not a complete copy.	Partially Duplicated
C176480	C124310		Fetal Pathology Findings Result	PATENT		Open and unobstructed; failure to close after birth.	Patent
C174384	C124310		Fetal Pathology Findings Result	PENDULOUS		Attached by a thread of tissue. (Makris S, Solomon HM, Clark R, Shiota K, Barbellion S, Buschmann J, Ema M, Fujiwara M, Grote K, Hazelden KP, Hew KW, Horimoto M, Ooshima Y, Parkinson M, Wise LD. Terminology of developmental abnormalities in common laboratory mammals (Version 2). Part B. Birth Defects Res B Dev Reprod Toxicol. 2009 Aug;86(4):227-327.)	Pendulous
C186234	C124310		Fetal Pathology Findings Result	PERSISTENT ATRIOVENTRICULAR CANAL	Persistent A-V Canal	Defects of endocardial cushions resulting in low atrial and high ventricular septal defects. (Makris S, Solomon HM, Clark R, Shiota K, Barbellion S, Buschmann J, Ema M, Fujiwara M, Grote K, Hazelden KP, Hew KW, Horimoto M, Ooshima Y, Parkinson M, Wise LD. Terminology of developmental abnormalities in common laboratory mammals (Version 2). Part B. Birth Defects Res B Dev Reprod Toxicol. 2009 Aug;86(4):227-327.)	Persistent Atrioventricular Canal
C43623	C124310		Fetal Pathology Findings Result	PERSISTENT		Retained; never-ceasing.	Persistent
C34928	C124310		Fetal Pathology Findings Result	PHOCOMELIA		Reduction or absence of proximal portion of limb, with the paws, hands, or feet being closer to the trunk of the body. (Makris S, Solomon HM, Clark R, Shiota K, Barbellion S, Buschmann J, Ema M, Fujiwara M, Grote K, Hazelden KP, Hew KW, Horimoto M, Ooshima Y, Parkinson M, Wise LD. Terminology of developmental abnormalities in common laboratory mammals (Version 2). Part B. Birth Defects Res B Dev Reprod Toxicol. 2009 Aug;86(4):227-327.)	Phocomelia
C92848	C124310		Fetal Pathology Findings Result	POLYHYDRAMNIOS		Excessive (increased) amount of amniotic fluid. (Makris S, Solomon HM, Clark R, Shiota K, Barbellion S, Buschmann J, Ema M, Fujiwara M, Grote K, Hazelden KP, Hew KW, Horimoto M, Ooshima Y, Parkinson M, Wise LD. Terminology of developmental abnormalities in common laboratory mammals (Version 2). Part B. Birth Defects Res B Dev Reprod Toxicol. 2009 Aug;86(4):227-327.)	Polyhydramnios
C124571	C124310		Fetal Pathology Findings Result	PREMATURE CLOSURE		Fusion, occlusion, or loss of patency occurring before the usual or proper time.	Premature Closure
C25626	C124310		Fetal Pathology Findings Result	PRESENT		Being or existing in a specified place or at the specified time. (NCI)	Present
C124572	C124310		Fetal Pathology Findings Result	PROBOSCIS		Tubular projection replaces snout. (Makris S, Solomon HM, Clark R, Shiota K, Barbellion S, Buschmann J, Ema M, Fujiwara M, Grote K, Hazelden KP, Hew KW, Horimoto M, Ooshima Y, Parkinson M, Wise LD. Terminology of developmental abnormalities in common laboratory mammals (Version 2). Part B. Birth Defects Res B Dev Reprod Toxicol. 2009 Aug;86(4):227-327.)	Proboscis
C36173	C124310		Fetal Pathology Findings Result	PROLAPSE		A condition in which an organ drops or bulges out of place. (NCI)	Prolapse
C124573	C124310		Fetal Pathology Findings Result	PROSOPOSCHISIS		Fissure of the face from the mouth to the eye.	Prosoposchisis
C124574	C124310		Fetal Pathology Findings Result	PROTRUDING		Extending outward beyond a surface or boundary.	Protruding
C186235	C124310		Fetal Pathology Findings Result	PROXIMAL OSSIFICATION SITE		Ossification site(s) in the cartilaginous proximal region of the bone. (Makris S, Solomon HM, Clark R, Shiota K, Barbellion S, Buschmann J, Ema M, Fujiwara M, Grote K, Hazelden KP, Hew KW, Horimoto M, Ooshima Y, Parkinson M, Wise LD. Terminology of developmental abnormalities in common laboratory mammals (Version 2). Part B. Birth Defects Res B Dev Reprod Toxicol. 2009 Aug;86(4):227-327.)	Proximal Ossification Site
C124575	C124310		Fetal Pathology Findings Result	PSEUDOHERMAPHRODITISM		Gonads of one sex are present, while the external genital organs resemble in whole or in part those of the opposite sex. (Makris S, Solomon HM, Clark R, Shiota K, Barbellion S, Buschmann J, Ema M, Fujiwara M, Grote K, Hazelden KP, Hew KW, Horimoto M, Ooshima Y, Parkinson M, Wise LD. Terminology of developmental abnormalities in common laboratory mammals (Version 2). Part B. Birth Defects Res B Dev Reprod Toxicol. 2009 Aug;86(4):227-327.)	Pseudohermaphroditism
C124576	C124310		Fetal Pathology Findings Result	RED MATERIAL		Descriptive of any tissue into which a red material is observed.	Red Material
C124577	C124310		Fetal Pathology Findings Result	REDUCED NUMBER	Fewer; Fewer Than Expected	A decrease in expected quantity.	Reduced Number
C124578	C124310		Fetal Pathology Findings Result	RETINAL FOLD	Retinal Folds	Undulation of retinal layers. (Makris S, Solomon HM, Clark R, Shiota K, Barbellion S, Buschmann J, Ema M, Fujiwara M, Grote K, Hazelden KP, Hew KW, Horimoto M, Ooshima Y, Parkinson M, Wise LD. Terminology of developmental abnormalities in common laboratory mammals (Version 2). Part B. Birth Defects Res B Dev Reprod Toxicol. 2009 Aug;86(4):227-327.)	Retinal Fold
C186236	C124310		Fetal Pathology Findings Result	RETROCAVAL		Situated or occurring anteriorly to the vena cava.	Retrocaval
C124579	C124310		Fetal Pathology Findings Result	RETROESOPHAGEAL		Passing dorsal to the esophagus.	Retroesophageal
C25660	C124310		Fetal Pathology Findings Result	RETROTRACHEAL		Passing dorsal to the trachea. (Makris S, Solomon HM, Clark R, Shiota K, Barbellion S, Buschmann J, Ema M, Fujiwara M, Grote K, Hazelden KP, Hew KW, Horimoto M, Ooshima Y, Parkinson M, Wise LD. Terminology of developmental abnormalities in common laboratory mammals (Version 2). Part B. Birth Defects Res B Dev Reprod Toxicol. 2009 Aug;86(4):227-327.)	Retrotracheal
C124580	C124310		Fetal Pathology Findings Result	RHINOCEPHALY		Proboscis-like nose above partially or completely fused eyes. (Makris S, Solomon HM, Clark R, Shiota K, Barbellion S, Buschmann J, Ema M, Fujiwara M, Grote K, Hazelden KP, Hew KW, Horimoto M, Ooshima Y, Parkinson M, Wise LD. Terminology of developmental abnormalities in common laboratory mammals (Version 2). Part B. Birth Defects Res B Dev Reprod Toxicol. 2009 Aug;86(4):227-327.)	Rhinocephaly
C124581	C124310		Fetal Pathology Findings Result	RIGHT-SIDED		Transposition to the right side, which is considered abnormal.	Right-Sided
C78603	C124310		Fetal Pathology Findings Result	SCOLIOSIS		Lateral curvature of the spinal column. (Makris S, Solomon HM, Clark R, Shiota K, Barbellion S, Buschmann J, Ema M, Fujiwara M, Grote K, Hazelden KP, Hew KW, Horimoto M, Ooshima Y, Parkinson M, Wise LD. Terminology of developmental abnormalities in common laboratory mammals (Version 2). Part B. Birth Defects Res B Dev Reprod Toxicol. 2009 Aug;86(4):227-327.)	Scoliosis
C38019	C124310		Fetal Pathology Findings Result	SHARED		Have in common.	Shared
C25249	C124310		Fetal Pathology Findings Result	SHORT		Less than the normal or expected length. (Makris S, Solomon HM, Clark R, Shiota K, Barbellion S, Buschmann J, Ema M, Fujiwara M, Grote K, Hazelden KP, Hew KW, Horimoto M, Ooshima Y, Parkinson M, Wise LD. Terminology of developmental abnormalities in common laboratory mammals (Version 2). Part B. Birth Defects Res B Dev Reprod Toxicol. 2009 Aug;86(4):227-327.)	Short
C186237	C124310		Fetal Pathology Findings Result	SINGLE INCISOR SOCKET		The presence of only one incisor socket.	Single Incisor Socket
C124583	C124310		Fetal Pathology Findings Result	SINGLE LOBE	Unilobular	Consisting of one lobe.	Unilobular
C48440	C124310		Fetal Pathology Findings Result	SINGLE		One.	Single
C118455	C124310		Fetal Pathology Findings Result	SIRENOMELIA	Symmelia	Any of several degrees of side-to-side fusion of lower extremities and concomitant midline reduction of the pelvis. Soft tissues and long bones, lower paw (feet), and viscera of the pelvis tend to be reduced or absent; anus and external genitalia are often absent. (Makris S, Solomon HM, Clark R, Shiota K, Barbellion S, Buschmann J, Ema M, Fujiwara M, Grote K, Hazelden KP, Hew KW, Horimoto M, Ooshima Y, Parkinson M, Wise LD. Terminology of developmental abnormalities in common laboratory mammals (Version 2). Part B. Birth Defects Res B Dev Reprod Toxicol. 2009 Aug;86(4):227-327.)	Sirenomelia
C87121	C124310		Fetal Pathology Findings Result	SITUS INVERSUS		Mirror-image transposition of the abdominal and/or thoracic viscera. (Makris S, Solomon HM, Clark R, Shiota K, Barbellion S, Buschmann J, Ema M, Fujiwara M, Grote K, Hazelden KP, Hew KW, Horimoto M, Ooshima Y, Parkinson M, Wise LD. Terminology of developmental abnormalities in common laboratory mammals (Version 2). Part B. Birth Defects Res B Dev Reprod Toxicol. 2009 Aug;86(4):227-327.)	Situs Inversus
C3374	C124310		Fetal Pathology Findings Result	SKIN TAG		Small appendage of skin. (Makris S, Solomon HM, Clark R, Shiota K, Barbellion S, Buschmann J, Ema M, Fujiwara M, Grote K, Hazelden KP, Hew KW, Horimoto M, Ooshima Y, Parkinson M, Wise LD. Terminology of developmental abnormalities in common laboratory mammals (Version 2). Part B. Birth Defects Res B Dev Reprod Toxicol. 2009 Aug;86(4):227-327.)	Skin Tag
C25376	C124310		Fetal Pathology Findings Result	SMALL		Limited in number, quantity, magnitude or extent. (NCI)	Small
C101214	C124310		Fetal Pathology Findings Result	SPINA BIFIDA	Rachischisis; Spinal Meningocele; Spinal Myelocele; Spinal Myelomeningocele	A family of defects in the closure of the spinal column. May be covered with skin (spina bifida occulta) or not covered with skin (spinabifida aperta); may involve protrusion of spinal cord and/or meninges. (Makris S, Solomon HM, Clark R, Shiota K, Barbellion S, Buschmann J, Ema M, Fujiwara M, Grote K, Hazelden KP, Hew KW, Horimoto M, Ooshima Y, Parkinson M, Wise LD. Terminology of developmental abnormalities in common laboratory mammals (Version 2). Part B. Birth Defects Res B Dev Reprod Toxicol. 2009 Aug;86(4):227-327.)	Spina Bifida
C124584	C124310		Fetal Pathology Findings Result	SPLAYED		Paired structures diverge from one another. (Makris S, Solomon HM, Clark R, Shiota K, Barbellion S, Buschmann J, Ema M, Fujiwara M, Grote K, Hazelden KP, Hew KW, Horimoto M, Ooshima Y, Parkinson M, Wise LD. Terminology of developmental abnormalities in common laboratory mammals (Version 2). Part B. Birth Defects Res B Dev Reprod Toxicol. 2009 Aug;86(4):227-327.)	Splayed
C54572	C124310		Fetal Pathology Findings Result	SPLIT	Bifid	Division of a single structure (usually into two parts) with no intervening structure between the parts. (Makris S, Solomon HM, Clark R, Shiota K, Barbellion S, Buschmann J, Ema M, Fujiwara M, Grote K, Hazelden KP, Hew KW, Horimoto M, Ooshima Y, Parkinson M, Wise LD. Terminology of developmental abnormalities in common laboratory mammals (Version 2). Part B. Birth Defects Res B Dev Reprod Toxicol. 2009 Aug;86(4):227-327.)	Split
C186238	C124310		Fetal Pathology Findings Result	SUBCUTANEOUS EDEMA		An accumulation of interstitial fluid in subcutaneous connective tissue. (Makris S, Solomon HM, Clark R, Shiota K, Barbellion S, Buschmann J, Ema M, Fujiwara M, Grote K, Hazelden KP, Hew KW, Horimoto M, Ooshima Y, Parkinson M, Wise LD. Terminology of developmental abnormalities in common laboratory mammals (Version 2). Part B. Birth Defects Res B Dev Reprod Toxicol. 2009 Aug;86(4):227-327.)	Subcutaneous Edema
C186239	C124310		Fetal Pathology Findings Result	SUPERNUMERARY BRANCH		More than the usual or expected number of vessel branches.	Supernumerary Branch
C124585	C124310		Fetal Pathology Findings Result	SUPERNUMERARY FISSURE	Additional Fissure	An extraneous, additional long narrow slit or groove that divides an organ into lobes, or tissues and bone into parts. (NCI)	Supernumerary Fissure
C186240	C124310		Fetal Pathology Findings Result	SUPERNUMERARY HEMIVERTEBRA		More than the usual or expected number of hemivertebra.	Supernumerary Hemivertebra
C186241	C124310		Fetal Pathology Findings Result	SUPERNUMERARY LOBE		More than the usual or expected number of lobes.	Supernumerary Lobe
C186242	C124310		Fetal Pathology Findings Result	SUPERNUMERARY OSSIFICATION SITE		More than the usual or expected number of ossification site(s). (Makris S, Solomon HM, Clark R, Shiota K, Barbellion S, Buschmann J, Ema M, Fujiwara M, Grote K, Hazelden KP, Hew KW, Horimoto M, Ooshima Y, Parkinson M, Wise LD. Terminology of developmental abnormalities in common laboratory mammals (Version 2). Part B. Birth Defects Res B Dev Reprod Toxicol. 2009 Aug;86(4):227-327.)	Supernumerary Ossification Site
C158328	C124310		Fetal Pathology Findings Result	SUPERNUMERARY RIB	Supernumerary Rib, Full	More than the usual or expected number of thoracic ribs having a length equal to or greater than 1/3 to 1/2 the size of the rib above or below it. (Makris S, Solomon HM, Clark R, Shiota K, Barbellion S, Buschmann J, Ema M, Fujiwara M, Grote K, Hazelden KP, Hew KW, Horimoto M, Ooshima Y, Parkinson M, Wise LD. Terminology of developmental abnormalities in common laboratory mammals (Version 2). Part B. Birth Defects Res B Dev Reprod Toxicol. 2009 Aug;86(4):227-327.)	Supernumerary Rib
C186243	C124310		Fetal Pathology Findings Result	SUPERNUMERARY RIB, ARTICULATED		An additional rib-like structure articulated with the vertebral column. (Makris S, Solomon HM, Clark R, Shiota K, Barbellion S, Buschmann J, Ema M, Fujiwara M, Grote K, Hazelden KP, Hew KW, Horimoto M, Ooshima Y, Parkinson M, Wise LD. Terminology of developmental abnormalities in common laboratory mammals (Version 2). Part B. Birth Defects Res B Dev Reprod Toxicol. 2009 Aug;86(4):227-327.)	Articulated Supernumerary Rib
C186244	C124310		Fetal Pathology Findings Result	SUPERNUMERARY RIB, NON-ARTICULATED	Floating Rib	An additional rib-like structure usually between two other ribs, not articulated with the vertebral column. (Makris S, Solomon HM, Clark R, Shiota K, Barbellion S, Buschmann J, Ema M, Fujiwara M, Grote K, Hazelden KP, Hew KW, Horimoto M, Ooshima Y, Parkinson M, Wise LD. Terminology of developmental abnormalities in common laboratory mammals (Version 2). Part B. Birth Defects Res B Dev Reprod Toxicol. 2009 Aug;86(4):227-327.)	Non-articulated Supernumerary Rib
C176389	C124310		Fetal Pathology Findings Result	SUPERNUMERARY RIB, SHORT		An extra rib at the cervicothoracic border with the distal extremity rounded, length less than one third of the length of the ossified portion of the first thoracic rib and no costal cartilage distal. (Makris S, Solomon HM, Clark R, Shiota K, Barbellion S, Buschmann J, Ema M, Fujiwara M, Grote K, Hazelden KP, Hew KW, Horimoto M, Ooshima Y, Parkinson M, Wise LD. Terminology of developmental abnormalities in common laboratory mammals (Version 2). Part B. Birth Defects Res B Dev Reprod Toxicol. 2009 Aug;86(4):227-327.)	Short Supernumerary Rib
C63758	C124310		Fetal Pathology Findings Result	SUPERNUMERARY	Accessory; Extra	More than the usual or expected number. (Makris S, Solomon HM, Clark R, Shiota K, Barbellion S, Buschmann J, Ema M, Fujiwara M, Grote K, Hazelden KP, Hew KW, Horimoto M, Ooshima Y, Parkinson M, Wise LD. Terminology of developmental abnormalities in common laboratory mammals (Version 2). Part B. Birth Defects Res B Dev Reprod Toxicol. 2009 Aug;86(4):227-327.)	Supernumerary
C186245	C124310		Fetal Pathology Findings Result	SUTURAL BONE	Fontanellar Bone; Intrasutural Bone; Wormian Bone	A supernumerary bone within the sutural joint of the skull.	Sutural Bone
C84505	C124310		Fetal Pathology Findings Result	TETRALOGY OF FALLOT		Defect of the heart which includes all of the following: pulmonary stenosis, interventricular septal defect, dextraposed aorta overriding the ventricular septum, and enlarged right ventricular wall. (Makris S, Solomon HM, Clark R, Shiota K, Barbellion S, Buschmann J, Ema M, Fujiwara M, Grote K, Hazelden KP, Hew KW, Horimoto M, Ooshima Y, Parkinson M, Wise LD. Terminology of developmental abnormalities in common laboratory mammals (Version 2). Part B. Birth Defects Res B Dev Reprod Toxicol. 2009 Aug;86(4):227-327.)	Tetralogy of Fallot
C81186	C124310		Fetal Pathology Findings Result	THICK		Relatively greater extent or depth than normal from one surface to the other of a tissue or skeletal element. Describes the three dimensional structure.	Thick
C65127	C124310		Fetal Pathology Findings Result	THIN		Relatively lesser extent than normal from one surface to the other of a tissue or skeletal element. Describes the three dimensional structure. (Makris S, Solomon HM, Clark R, Shiota K, Barbellion S, Buschmann J, Ema M, Fujiwara M, Grote K, Hazelden KP, Hew KW, Horimoto M, Ooshima Y, Parkinson M, Wise LD. Terminology of developmental abnormalities in common laboratory mammals (Version 2). Part B. Birth Defects Res B Dev Reprod Toxicol. 2009 Aug;86(4):227-327.)	Thin
C124586	C124310		Fetal Pathology Findings Result	THORACOGASTROSCHISIS	Thoracoceloschisis	Fissure of thoracic and abdominal walls with thoracic and abdominal viscera, or major parts thereof, exposed ventrally. (Makris S, Solomon HM, Clark R, Shiota K, Barbellion S, Buschmann J, Ema M, Fujiwara M, Grote K, Hazelden KP, Hew KW, Horimoto M, Ooshima Y, Parkinson M, Wise LD. Terminology of developmental abnormalities in common laboratory mammals (Version 2). Part B. Birth Defects Res B Dev Reprod Toxicol. 2009 Aug;86(4):227-327.)	Thoracogastroschisis
C124587	C124310		Fetal Pathology Findings Result	THORACOSCHISIS		Fissure of thoracic wall. (Makris S, Solomon HM, Clark R, Shiota K, Barbellion S, Buschmann J, Ema M, Fujiwara M, Grote K, Hazelden KP, Hew KW, Horimoto M, Ooshima Y, Parkinson M, Wise LD. Terminology of developmental abnormalities in common laboratory mammals (Version 2). Part B. Birth Defects Res B Dev Reprod Toxicol. 2009 Aug;86(4):227-327.)	Thoracoschisis
C124588	C124310		Fetal Pathology Findings Result	THREAD-LIKE	Filamentous	Resembling a thread or pertaining to thread-like structures.	Thread-Like
C176481	C124310		Fetal Pathology Findings Result	THREE-CHAMBERED		Consisting of three chambers.	Three-Chambered
C124590	C124310		Fetal Pathology Findings Result	THYMIC CORD	Extra Thymic Tissue; Thymic Remnant in the Neck; Thymus Long Cranially	Partially undescended horn of thymus. (Makris S, Solomon HM, Clark R, Shiota K, Barbellion S, Buschmann J, Ema M, Fujiwara M, Grote K, Hazelden KP, Hew KW, Horimoto M, Ooshima Y, Parkinson M, Wise LD. Terminology of developmental abnormalities in common laboratory mammals (Version 2). Part B. Birth Defects Res B Dev Reprod Toxicol. 2009 Aug;86(4):227-327.)	Thymic Cord
C176482	C124310		Fetal Pathology Findings Result	TRANSPOSED	Transposition	Displacement to the opposite side. (https://medical-dictionary.thefreedictionary.com/)	Transposed
C176483	C124310		Fetal Pathology Findings Result	TWO-CHAMBERED		Consisting of two chambers.	Two-Chambered
C176484	C124310		Fetal Pathology Findings Result	UNEXPANDED		Incomplete expansion.	Unexpanded
C186246	C124310		Fetal Pathology Findings Result	UNILATERAL OSSIFICATION		Commonly used for structures arising from two or more primary ossification centers (e.g., sternebrae, vertebral centra). Ossification is present in only one of the centers. Applies only to ossification sites and does not imply that the structure, as represented by the bone precursor, is unilateral. (Adapted from Makris S, Solomon HM, Clark R, Shiota K, Barbellion S, Buschmann J, Ema M, Fujiwara M, Grote K, Hazelden KP, Hew KW, Horimoto M, Ooshima Y, Parkinson M, Wise LD. Terminology of developmental abnormalities in common laboratory mammals (Version 2). Part B. Birth Defects Res B Dev Reprod Toxicol. 2009 Aug;86(4):227-327.)	Unilateral Ossification Site
C124642	C124310		Fetal Pathology Findings Result	UNOSSIFIED LINE	Supernumerary Suture	Linear break in ossification with underlying bone precursor present. Usually seen in the intramembranous bones of the skull. (Makris S, Solomon HM, Clark R, Shiota K, Barbellion S, Buschmann J, Ema M, Fujiwara M, Grote K, Hazelden KP, Hew KW, Horimoto M, Ooshima Y, Parkinson M, Wise LD. Terminology of developmental abnormalities in common laboratory mammals (Version 2). Part B. Birth Defects Res B Dev Reprod Toxicol. 2009 Aug;86(4):227-327.)	Supernumerary Cranial Sutures
C124641	C124310		Fetal Pathology Findings Result	UNOSSIFIED		Absence of ossification (assessed by absence of alizarin red stain) at a site which, in controls of the same age, is usually at least partially ossified. Applies only to the ossification site and does not imply any change to the bone precursor. (Makris S, Solomon HM, Clark R, Shiota K, Barbellion S, Buschmann J, Ema M, Fujiwara M, Grote K, Hazelden KP, Hew KW, Horimoto M, Ooshima Y, Parkinson M, Wise LD. Terminology of developmental abnormalities in common laboratory mammals (Version 2). Part B. Birth Defects Res B Dev Reprod Toxicol. 2009 Aug;86(4):227-327.)	Unossified
C96301	C124310		Fetal Pathology Findings Result	UNREMARKABLE		No noteworthy findings.	Unremarkable
C176485	C124310		Fetal Pathology Findings Result	WAVY		Undulations along a length. (Makris S, Solomon HM, Clark R, Shiota K, Barbellion S, Buschmann J, Ema M, Fujiwara M, Grote K, Hazelden KP, Hew KW, Horimoto M, Ooshima Y, Parkinson M, Wise LD. Terminology of developmental abnormalities in common laboratory mammals (Version 2). Part B. Birth Defects Res B Dev Reprod Toxicol. 2009 Aug;86(4):227-327.)	Wavy
C124593	C124310		Fetal Pathology Findings Result	WIDE		Greater than the normal or expected width. More than the normal side to side dimension. (Makris S, Solomon HM, Clark R, Shiota K, Barbellion S, Buschmann J, Ema M, Fujiwara M, Grote K, Hazelden KP, Hew KW, Horimoto M, Ooshima Y, Parkinson M, Wise LD. Terminology of developmental abnormalities in common laboratory mammals (Version 2). Part B. Birth Defects Res B Dev Reprod Toxicol. 2009 Aug;86(4):227-327.)	Wide
