Code	Codelist Code	Codelist Extensible (Yes/No)	Codelist Name	CDISC Submission Value	CDISC Synonym(s)	CDISC Definition	NCI Preferred Term
C65047		Yes	Laboratory Test Code	LBTESTCD	Laboratory Test Code	Terminology used for laboratory test codes of the CDISC Study Data Tabulation Model.	CDISC SDTM Laboratory Test Code Terminology
C100429	C65047		Laboratory Test Code	A1AGLP	Alpha-1 Acid Glycoprotein	A measurement of the alpha-1 acid glycoprotein in a biological specimen.	Alpha-1 Acid Glycoprotein Measurement
C181404	C65047		Laboratory Test Code	A1ANTRPF	Alpha-1 Antitrypsin, Functional	A measurement of the functional alpha-1 antitrypsin in a biological specimen.	Functional Alpha-1 Antitrypsin Measurement
C80167	C65047		Laboratory Test Code	A1ANTRYP	Alpha-1 Antitrypsin; Serum Trypsin Inhibitor	A measurement of the alpha-1 antitrypsin in a biological specimen.	Alpha-1 Antitrypsin Measurement
C186022	C65047		Laboratory Test Code	A1MCGEXR	Alpha-1 Microglobulin Excretion Rate	A measurement of the amount of alpha-1 microglobulin being excreted in a biological specimen over a defined amount of time (e.g. one hour).	Alpha-1 Microglobulin Excretion Rate Measurement
C100462	C65047		Laboratory Test Code	A1MCREAT	Alpha-1 Microglobulin/Creatinine	A relative measurement (ratio or percentage) of the alpha-1 microglobulin to creatinine in a biological specimen.	Alpha-1 Microglobulin to Creatinine Ratio Measurement
C100461	C65047		Laboratory Test Code	A1MICG	Alpha-1 Microglobulin; Protein HC	A measurement of the alpha-1 microglobulin in a biological specimen.	Alpha-1 Microglobulin Measurement
C80168	C65047		Laboratory Test Code	A2MACG	Alpha-2 Macroglobulin	A measurement of the alpha-2 macroglobulin in a biological specimen.	Alpha-2 Macroglobulin Measurement
C172524	C65047		Laboratory Test Code	A73OXC	7-Alpha hydroxy-4-cholesten-3-one; 7-alpha-Hydroxy-4-cholesten-3-one	A measurement of the 7-alpha-hydroxy-4-cholesten-3-one in a biological specimen.	7-alpha-Hydroxy-4-cholesten-3-one Measurement
C154761	C65047		Laboratory Test Code	AAMAPAC	Alpha-Aminoadipate; Alpha-Aminoadipic Acid	A measurement of the alpha-aminoadipic acid in a biological specimen.	Alpha-Aminoadipic Acid Measurement
C154759	C65047		Laboratory Test Code	AAMBTAC	Alpha-aminobutyrate; Alpha-Aminobutyric Acid; Homoalanine	A measurement of the alpha-aminobutyric acid in a biological specimen.	Alpha-Aminobutyric Acid Measurement
C100430	C65047		Laboratory Test Code	AAP	Alanine Aminopeptidase	A measurement of the alanine aminopeptidase in a biological specimen.	Alanine Aminopeptidase Measurement
C221574	C65047		Laboratory Test Code	AARGS	Aggrecan Ala-Arg-Gly-Ser Neoepitope; Aggrecan Alanine-Arginine-Glycine-Serine Neoepitope; ARGS; ARGS-Aggrecan	A measurement of the aggrecan alanine-arginine-glycine-serine neoepitope (ARGS) in a biological specimen.	Aggrecan Alanine-Arginine-Glycine-Serine Neoepitope Measurement
C189527	C65047		Laboratory Test Code	AATZPL	AAT Z-Polymer; Alpha-1 Antitrypsin Z-Polymer	A measurement of the polymers of Z-variant alpha-1 antitrypsin in a biological specimen.	Alpha-1 Antitrypsin Z-Polymer Measurement
C199923	C65047		Laboratory Test Code	AB42AB40	Amyloid Beta 1-42/Amyloid Beta 1-40	A relative measurement (ratio) of the amyloid beta 1-42 to amyloid beta 1-40 in a biological specimen.	Amyloid Beta 1-42 to Amyloid Beta 1-40 Ratio Measurement
C225593	C65047		Laboratory Test Code	AB71A	Activation B7-1 Antigen; B-Lymphocyte Activation Antigen B7; CD28 Ligand; CD28LG1; CD80 Molecule; Soluble CD80; T-Lymphocyte Activation Antigen CD80	A measurement of the activation B7-1 antigen in a biological specimen.	Activation B7-1 Antigen Measurement
C184526	C65047		Laboratory Test Code	ABFBCA	AB-FUBINACA	A measurement of the synthetic cannabinoid AB-FUBINACA in a biological specimen.	AB-FUBINACA Measurement
C111124	C65047		Laboratory Test Code	ABNCE	Abnormal Cells	A measurement of the abnormal cells in a biological specimen.	Abnormal Cell Count
C150835	C65047		Laboratory Test Code	ABNCECE	Abnormal Cells/Total Cells	A relative measurement (ratio or percentage) of abnormal cells to total cells in a biological specimen.	Abnormal Cells to Total Cells Ratio Measurement
C150834	C65047		Laboratory Test Code	ABNCELE	Abnormal Cells/Leukocytes	A relative measurement (ratio or percentage) of abnormal cells to leukocytes in a biological specimen.	Abnormal Cells to Leukocytes Ratio Measurement
C125939	C65047		Laboratory Test Code	ABO	ABO Blood Group	The characterization of the blood type of an individual by testing for the presence of A antigen and B antigen on the surface of red blood cells.	ABO Blood Group Determination
C135397	C65047		Laboratory Test Code	ABOA1	ABO A1 Subtype	The characterization of the ABO blood group A1 subtype in an individual. (NCI)	ABO A1 Subtype Determination
C204641	C65047		Laboratory Test Code	ABP4	4-ABP; 4-Aminobiphenyl	A measurement of the 4-aminobiphenyl in a specimen.	4-Aminobiphenyl Measurement
C184527	C65047		Laboratory Test Code	ABPNCA	AB-PINACA	A measurement of the synthetic cannabinoid AB-PINACA in a biological specimen.	AB-PINACA Measurement
C74699	C65047		Laboratory Test Code	ACANT	Acanthocytes	A measurement of the acanthocytes in a biological specimen.	Acanthocyte Count
C74633	C65047		Laboratory Test Code	ACANTRBC	Acanthocytes/Erythrocytes	A relative measurement (ratio or percentage) of acanthocytes to all erythrocytes in a biological specimen.	Acanthocyte to Erythrocyte Ratio Measurement
C221549	C65047		Laboratory Test Code	ACC	ACC; Acetyl-CoA Carboxylase	A measurement of the total acetyl-CoA carboxylase in a biological specimen.	Acetyl-CoA Carboxylase Measurement
C221550	C65047		Laboratory Test Code	ACCP	pACC; pAcetyl-CoA Carboxylase; Phosphorylated Acetyl-CoA Carboxylase	A measurement of the phosphorylated acetyl-CoA carboxylase in a biological specimen.	Phosphorylated Acetyl-CoA Carboxylase Measurement
C221551	C65047		Laboratory Test Code	ACCPACC	pACC/ACC; pAcetyl-CoA Carboxylase/ACC; Phosphorylated Acetyl-CoA Carboxylase/Acetyl-CoA Carboxylase	A relative measurement (ratio or percentage) of the phosphorylated acetyl-CoA carboxylase to total acetyl-CoA carboxylase in a biological specimen.	Phosphorylated Acetyl-CoA Carboxylase to Acetyl-CoA Carboxylase Ratio Measurement
C80169	C65047		Laboratory Test Code	ACE	Angiotensin Converting Enzyme	A measurement of the angiotensin converting enzyme in a biological specimen.	Angiotensin Converting Enzyme Measurement
C135398	C65047		Laboratory Test Code	ACETAMIN	Acetaminophen; Paracetamol	A measurement of the acetaminophen in a biological specimen.	Acetaminophen Measurement
C92247	C65047		Laboratory Test Code	ACETOAC	Acetoacetate; Acetoacetic Acid	A measurement of the acetoacetic acid in a biological specimen.	Acetoacetic Acid Measurement
C147288	C65047		Laboratory Test Code	ACETONE	Acetone	A measurement of the acetone in a specimen.	Acetone Measurement
C74838	C65047		Laboratory Test Code	ACH	Acetylcholine	A measurement of the acetylcholine hormone in a biological specimen.	Acetylcholine Measurement
C96560	C65047		Laboratory Test Code	ACHE	Acetylcholinesterase	A measurement of the acetylcholinesterase in a biological specimen.	Acetylcholinesterase Measurement
C80163	C65047		Laboratory Test Code	ACPHOS	Acid Phosphatase	A measurement of the acid phosphatase in a biological specimen.	Acid Phosphatase Measurement
C147289	C65047		Laboratory Test Code	ACRNCRNF	Acylcarnitine/Carnitine, Free	A relative measurement (ratio or percentage) of the acylcarnitine to free carnitine in a biological specimen.	Acylcarnitine to Free Carnitine Ratio Measurement
C204643	C65047		Laboratory Test Code	ACROLEIN	Acrolein	A measurement of the acrolein in a specimen.	Acrolein Measurement
C204644	C65047		Laboratory Test Code	ACRYNTRL	Acrylonitrile	A measurement of the acrylonitrile in a specimen.	Acrylonitrile Measurement
C189522	C65047		Laboratory Test Code	ACSPGM	Acid Sphingomyelinase	A measurement of the acid sphingomyelinase in a biological specimen.	Sphingomyelin Phosphodiesterase Measurement
C103348	C65047		Laboratory Test Code	ACT	Activated Clotting Time; Activated Coagulation Time	A measurement of the inhibition of blood coagulation in response to anticoagulant therapies.	Activated Coagulation Time
C189521	C65047		Laboratory Test Code	ACTACEXR	Acetoacetate Excretion Rate; Acetoacetic Acid Excretion Rate	A measurement of the amount of acetoacetic acid being excreted in a biological specimen over a defined period of time (e.g. one hour).	Acetoacetic Acid Excretion Rate Measurement
C204642	C65047		Laboratory Test Code	ACTALD	Acetaldehyde	A measurement of the acetaldehyde in a specimen.	Acetaldehyde Measurement
C184510	C65047		Laboratory Test Code	ACTB	Actin Beta; B-Actin; Beta-Actin	A measurement of the beta-actin in a biological specimen.	Beta-Actin Measurement
C74780	C65047		Laboratory Test Code	ACTH	Adrenocorticotropic Hormone; Corticotropin	A measurement of the adrenocorticotropic hormone in a biological specimen.	Adrenocorticotropic Hormone Measurement
C202385	C65047		Laboratory Test Code	ACTVNA	Activin A	A measurement of the activin A (a homodimer consisting of Inhibin Subunit Beta A) in a biological specimen.	Activin A Measurement
C202386	C65047		Laboratory Test Code	ACTVNAB	Activin AB	A measurement of the activin AB (a heterodimer consisting of Inhibin Subunit Beta A and Inhibin Subunit Beta B) in a biological specimen.	Activin AB Measurement
C202387	C65047		Laboratory Test Code	ACTVNB	Activin B	A measurement of the activin B (a homodimer consisting of Inhibin Subunit Beta B) in a biological specimen.	Activin B Measurement
C156535	C65047		Laboratory Test Code	ACYCRNTN	Acylcarnitine	A measurement of the acylcarnitine in a biological specimen.	Acylcarnitine Measurement
C156534	C65047		Laboratory Test Code	ACYGLYCN	Acylglycine	A measurement of the acylglycine in a biological specimen.	Acylglycine Measurement
C92286	C65047		Laboratory Test Code	ACYLCAOX	Acyl CoA Oxidase; Acyl Coenzyme A Oxidase; Fatty Acyl Coenzyme A Oxidase	A measurement of the acyl coenzyme A oxidase in a biological specimen.	Acyl Coenzyme A Oxidase Measurement
C147290	C65047		Laboratory Test Code	ADAM8	A Disintegrin And Metalloproteinase Domain 8; ADAM Metallopeptidase Domain 8; Soluble CD156a	A measurement of the ADAM metallopeptidase domain 8 protein in a biological specimen.	ADAM Metallopeptidase Domain 8 Measurement
C187684	C65047		Laboratory Test Code	ADAMTS13	A Disintegrin-Like And Metalloprotease (Reprolysin Type) With Thrombospondin Type 1 Motif, 13; ADAM Metallopeptidase With Thrombospondin Type 1 Motif 13; von Willebrand Coagulation Factor Cleaving Protease ADAMTS13	A measurement of the von Willebrand coagulation factor cleaving protease, ADAMTS13, in a biological specimen.	von Willebrand Coagulation Factor Cleaving Protease Measurement
C184529	C65047		Laboratory Test Code	ADBPNCA	ADB-PINACA	A measurement of the synthetic cannabinoid ADB-PINACA in a biological specimen.	ADB-PINACA Measurement
C74847	C65047		Laboratory Test Code	ADH	Antidiuretic Hormone; Vasopressin	A measurement of the antidiuretic hormone in a biological specimen.	Antidiuretic Hormone Measurement
C199910	C65047		Laboratory Test Code	ADM	Adrenomedullin	A measurement of the adrenomedullin in a biological specimen.	Adrenomedullin Measurement
C158233	C65047		Laboratory Test Code	ADMA	Asymmetric Dimethylarginine; N,N-dimethylarginine	A measurement of asymmetric dimethylarginine in a biological specimen.	Asymmetric Dimethylarginine Measurement
C187830	C65047		Laboratory Test Code	ADMTS13A	A Disintegrin-Like And Metalloprotease (Reprolysin Type) With Thrombospondin Type 1 Motif, 13 Activity; ADAM Metallopeptidase With Thrombospondin Type 1 Motif 13 Activity; ADAMTS13 Activity; von Willebrand Coagulation Factor Cleaving Protease ADAMTS13 Activity	A measurement of the biological activity of von Willebrand coagulation factor cleaving protease, ADAMTS13, in a biological specimen.	von Willebrand Coagulation Factor Cleaving Protease Activity Measurement
C102257	C65047		Laboratory Test Code	ADP	Adenosine Diphosphate	A measurement of the adenosine diphosphate in a biological specimen.	Adenosine Diphosphate Measurement
C74839	C65047		Laboratory Test Code	ADPNCTN	Adiponectin	A measurement of the total adiponectin hormone in a biological specimen.	Adiponectin Measurement
C132363	C65047		Laboratory Test Code	ADPNHMW	Adiponectin, High Molecular Weight	A measurement of the high molecular weight adiponectin hormone in a biological specimen.	High Molecular Weight Adiponectin Measurement
C98706	C65047		Laboratory Test Code	AFACTXAA	Anti-Factor Xa Activity	A measurement of the ability of antithrombin to inactivate activated Factor X in a biological specimen. This test is used to monitor low molecular weight or unfractionated heparin levels in a biological specimen.	Anti-Factor Xa Activity Measurement
C74732	C65047		Laboratory Test Code	AFP	Alpha Fetoprotein; Alpha-1-Fetoprotein	A measurement of the alpha fetoprotein in a biological specimen.	Alpha-fetoprotein Measurement
C147291	C65047		Laboratory Test Code	AFPADJBW	Alpha Fetoprotein Adj for Body Weight	A measurement of alpha fetoprotein, which has been adjusted for body weight, in a biological specimen.	Alpha Fetoprotein Adjusted for Body Weight Measurement
C96562	C65047		Laboratory Test Code	AFPL1	Alpha Fetoprotein L1	A measurement of the alpha fetoprotein L1 in a biological specimen.	Alpha Fetoprotein L1 Measurement
C96563	C65047		Laboratory Test Code	AFPL2	Alpha Fetoprotein L2	A measurement of the alpha fetoprotein L2 in a biological specimen.	Alpha Fetoprotein L2 Measurement
C96564	C65047		Laboratory Test Code	AFPL3	Alpha Fetoprotein L3	A measurement of the alpha fetoprotein L3 in a biological specimen.	Alpha Fetoprotein L3 Measurement
C96565	C65047		Laboratory Test Code	AFPL3AFP	A Fetoprotein L3/A Fetoprotein	A relative measurement (ratio or percentage) of alpha fetoprotein L3 to total alpha fetoprotein in a biological specimen.	Alpha Fetoprotein L3 to Total Alpha Fetoprotein Ratio Measurement
C124334	C65047		Laboratory Test Code	AG1_5	1,5-Anhydroglucitol	A measurement of the 1,5-anhydroglucitol in a biological specimen.	1,5-Anhydroglucitol Measurement
C111126	C65047		Laboratory Test Code	AHBDH	Alpha Hydroxybutyrate Dehydrogenase	A measurement of the alpha-hydroxybutyrate dehydrogenase in a biological specimen.	Alpha Hydroxybutyrate Dehydrogenase Measurement
C181418	C65047		Laboratory Test Code	AHTRZLM	Alpha-Hydroxytriazolam	A measurement of the alpha-hydroxytriazolam a biological specimen.	Alpha-Hydroxytriazolam Measurement
C202384	C65047		Laboratory Test Code	AKIRSC	Acute Kidney Injury Risk Score; AKI Risk Score	A scoring system that evaluates acute kidney injury risk through the assessment of urine test parameter(s), and which may take into account additional factors.	Acute Kidney Injury Risk Score
C122091	C65047		Laboratory Test Code	ALA	Alanine	A measurement of the alanine in a biological specimen.	Alanine Measurement
C147292	C65047		Laboratory Test Code	ALA1ALB	Apolipoprotein A1/Apolipoprotein B	A relative measurement (ratio or percentage) of the Apolipoprotein A1 to Apolipoprotein B in a biological specimen.	Apolipoprotein A1 to Apolipoprotein B Ratio Measurement
C158222	C65047		Laboratory Test Code	ALAALB	Apolipoprotein A/Apolipoprotein B	A relative measurement (ratio) of the total apolipoprotein A to apolipoprotein B in a biological specimen.	Apolipoprotein A to Apolipoprotein B Ratio Measurement
C64431	C65047		Laboratory Test Code	ALB	Albumin; Microalbumin	A measurement of the albumin protein in a biological specimen.	Albumin Measurement
C147293	C65047		Laboratory Test Code	ALBC	Albumin Clearance	A measurement of the albumin clearance in a biological specimen.	Albumin Clearance
C74761	C65047		Laboratory Test Code	ALBCREAT	Albumin/Creatinine; Microalbumin/Creatinine Ratio	A relative measurement (ratio) of the albumin to the creatinine in a biological specimen.	Albumin to Creatinine Ratio Measurement
C150814	C65047		Laboratory Test Code	ALBEXR	Albumin Excretion Rate	A measurement of the amount of albumin excreted in a biological specimen over a defined period of time (e.g. one hour).	Albumin Excretion Rate
C158228	C65047		Laboratory Test Code	ALBGALB	Glycated Albumin/Albumin	A relative measurement (ratio or percentage) of the glycated albumin to total albumin in a biological specimen.	Glycated Albumin to Albumin Ratio Measurement
C74894	C65047		Laboratory Test Code	ALBGLOB	Albumin/Globulin	The ratio of albumin to globulin in a biological specimen.	Albumin to Globulin Ratio Measurement
C122092	C65047		Laboratory Test Code	ALBGLYCA	Glycated Albumin	A measurement of the glycated albumin present in a biological specimen.	Glycated Albumin Measurement
C154734	C65047		Laboratory Test Code	ALBIDX	Albumin Index	A relative measurement (ratio) of the albumin in cerebrospinal fluid to albumin in serum or plasma in a biological specimen.	Albumin Index
C103453	C65047		Laboratory Test Code	ALBPROT	Albumin/Total Protein	A relative measurement (ratio or percentage) of the albumin to total protein in a biological specimen.	Albumin to Total Protein Ratio Measurement
C154743	C65047		Laboratory Test Code	ALDEPX	Aldrin Epoxidase	A measurement of the aldrin epoxidase in a biological specimen.	Aldrin Epoxidase Measurement
C74731	C65047		Laboratory Test Code	ALDOLASE	Aldolase	A measurement of the aldolase enzyme in a biological specimen.	Aldolase Measurement
C202382	C65047		Laboratory Test Code	ALDSTEXR	Aldosterone Excretion Rate	A measurement of the amount of aldosterone being excreted in a biological specimen over a defined amount of time (e.g. one hour).	Aldosterone Excretion Rate
C74841	C65047		Laboratory Test Code	ALDSTRN	Aldosterone	A measurement of the aldosterone hormone in a biological specimen.	Aldosterone Measurement
C184566	C65047		Laboratory Test Code	ALFNTNL	Alfentanil	A measurement of the alfentanil in a biological specimen.	Alfentanil Measurement
C154762	C65047		Laboratory Test Code	ALLOILE	Alloisoleucine	A measurement of the alloisoleucine in a biological specimen.	Alloisoleucine Measurement
C184519	C65047		Laboratory Test Code	ALOX5	5-Lipoxygenase; 5-LO; 5-LOX; ALOX5; Arachidonate 5-Lipoxygenase	A measurement of the arachidonate 5-lipoxygenase in a biological specimen.	Arachidonate 5-Lipoxygenase Measurement
C64432	C65047		Laboratory Test Code	ALP	Alkaline Phosphatase	A measurement of the alkaline phosphatase in a biological specimen.	Alkaline Phosphatase Measurement
C147294	C65047		Laboratory Test Code	ALPBALP	Alk Phos, Bone/Total Alk Phos; Alkaline Phosphatase, Bone/Total Alkaline Phosphatase	A relative measurement (ratio or percentage) of the bone specific alkaline phosphatase isoform to total alkaline phosphatase in a biological specimen.	Bone Alkaline Phosphatase to Total Alkaline Phosphatase Ratio Measurement
C221548	C65047		Laboratory Test Code	ALPBIALP	Alk Phos, Bile/Total Alk Phos; Alk Phos, Biliary/Total Alk Phos	A relative measurement (ratio or percentage) of the biliary specific alkaline phosphatase isoform to total alkaline phosphatase in a biological specimen.	Biliary Alkaline Phosphatase to Alkaline Phosphatase Ratio Measurement
C92287	C65047		Laboratory Test Code	ALPBS	Bone Specific Alkaline Phosphatase	A measurement of the bone specific alkaline phosphatase isoform in a biological specimen.	Bone Specific Alkaline Phosphatase Measurement
C79438	C65047		Laboratory Test Code	ALPCREAT	Alkaline Phosphatase/Creatinine	A relative measurement (ratio or percentage) of the alkaline phosphatase to creatinine in a biological specimen.	Alkaline Phosphatase to Creatinine Ratio Measurement
C165942	C65047		Laboratory Test Code	ALPEXR	Alkaline Phosphatase Excretion Rate	A measurement of the amount of alkaline phosphatase being excreted in a biological specimen over a defined amount of time (e.g. one hour).	Alkaline Phosphatase Excretion Rate
C147295	C65047		Laboratory Test Code	ALPIALP	Alk Phos, Intestinal/Total Alk Phos; Alkaline Phosphatase, Intestinal/Total Alkaline Phosphatase	A relative measurement (ratio or percentage) of the intestinal specific alkaline phosphatase isoform to total alkaline phosphatase in a biological specimen.	Intestinal Alkaline Phosphatase to Total Alkaline Phosphatase Ratio Measurement
C119266	C65047		Laboratory Test Code	ALPIS	Intestinal Specific Alkaline Phosphatase	A measurement of the intestinal specific alkaline phosphatase isoform in a biological specimen.	Intestinal Specific Alkaline Phosphatase Measurement
C139091	C65047		Laboratory Test Code	ALPISOE	Alkaline Phosphatase Isoenzyme	A measurement of the alkaline phosphatase isoenzyme in a biological specimen.	Alkaline Phosphatase Isoenzyme Measurement
C147296	C65047		Laboratory Test Code	ALPLALP	Alk Phos, Liver/Total Alk Phos; Alkaline Phosphatase, Liver/Total Alkaline Phosphatase	A relative measurement (ratio or percentage) of the liver specific alkaline phosphatase isoform to total alkaline phosphatase in a biological specimen.	Liver Alkaline Phosphatase to Total Alkaline Phosphatase Ratio Measurement
C189497	C65047		Laboratory Test Code	ALPLBALP	Alk Phos, Liver + Bone/Total Alk Phos	A relative measurement (ratio or percentage) of the liver and bone specific alkaline phosphatase isoforms to total alkaline phosphatase in a biological specimen.	Liver and Bone Specific Alkaline Phosphatase Isoform to Alkaline Phosphatase Ratio Measurement
C119267	C65047		Laboratory Test Code	ALPLS	Liver Specific Alkaline Phosphatase	A measurement of the liver specific alkaline phosphatase isoform in a biological specimen.	Liver Specific Alkaline Phosphatase Measurement
C221547	C65047		Laboratory Test Code	ALPMALP	Alk Phos, Macro/Total Alk Phos; Alk Phos, Macrohepatic/Total Alk Phos	A relative measurement (ratio or percentage) of the macrohepatic specific alkaline phosphatase isoform to total alkaline phosphatase in a biological specimen.	Macrohepatic Alkaline Phosphatase to Alkaline Phosphatase Ratio Measurement
C184508	C65047		Laboratory Test Code	ALPPALP	Alk Phos, Placental/Total Alk Phos; Alkaline Phosphatase, Placental/Total Alkaline Phosphatase	A relative measurement (ratio or percentage) of the placental specific alkaline phosphatase isoform to total alkaline phosphatase in a biological specimen.	Placental Alkaline Phosphatase to Total Alkaline Phosphatase Measurement
C184509	C65047		Laboratory Test Code	ALPPS	Placental Specific Alkaline Phosphatase	A measurement of the placental specific alkaline phosphatase isoform in a biological specimen.	Placental Specific Alkaline Phosphatase Measurement
C75370	C65047		Laboratory Test Code	ALPRZLM	Alprazolam	A measurement of the alprazolam present in a biological specimen.	Alprazolam Measurement
C163419	C65047		Laboratory Test Code	ALS	Acid Labile Subunit; ALS; IGFALS; Insulin Like Growth Factor Binding Protein Acid Labile Subunit	A measurement of the acid labile subunit in a biological specimen.	Acid Labile Subunit Measurement
C64433	C65047		Laboratory Test Code	ALT	Alanine Aminotransferase; SGPT	A measurement of the alanine aminotransferase in a biological specimen.	Alanine Aminotransferase Measurement
C106498	C65047		Laboratory Test Code	ALTAST	ALT/AST	A relative measurement (ratio or percentage) of the alanine aminotransferase (ALT) to aspartate aminotransferase (AST) present in a sample.	Alanine Aminotransferase to Aspartate Aminotransferase Ratio Measurement
C103349	C65047		Laboratory Test Code	ALTCPHRL	Alpha Tocopherol	A measurement of the alpha tocopherol in a biological specimen.	Alpha Tocopherol Measurement
C111127	C65047		Laboratory Test Code	ALUMINUM	Al; Aluminum	A measurement of aluminum in a biological specimen.	Aluminum Measurement
C184539	C65047		Laboratory Test Code	AM2201	AM-2201; AM2201	A measurement of the synthetic cannabinoid AM-2201 in a biological specimen.	AM-2201 Measurement
C184538	C65047		Laboratory Test Code	AM694N5H	AM694 N-5-hydroxypentyl	A measurement of the synthetic cannabinoid metabolite AM694 N-5-hydroxypentyl in a biological specimen.	AM694 N-5-hydroxypentyl Measurement
C132364	C65047		Laboratory Test Code	AMACR	Alpha-Methylacyl Coenzyme A Racemase	A measurement of the alpha-methylacyl coenzyme A racemase in a biological specimen.	Alpha-Methylacyl Coenzyme A Racemase Measurement
C75363	C65047		Laboratory Test Code	AMBRBTL	Amobarbital	A measurement of the amobarbital present in a biological specimen.	Amobarbital Measurement
C132365	C65047		Laboratory Test Code	AMCRMRNA	AMACR mRNA	A measurement of the alpha-methylacyl coenzyme A racemase mRNA in a biological specimen.	Alpha-Methylacyl Coenzyme A Racemase mRNA Measurement
C120625	C65047		Laboratory Test Code	AMH	Anti-Mullerian Hormone	A measurement of the anti-Mullerian hormone in a biological specimen.	Anti-Mullerian Hormone Measurement
C186023	C65047		Laboratory Test Code	AMITRPTL	Amitriptyline	A measurement of the amitriptyline in a biological specimen.	Amitriptyline Measurement
C74799	C65047		Laboratory Test Code	AMMONIA	Ammonia; NH3	A measurement of the ammonia in a specimen.	Ammonia Measurement
C186024	C65047		Laboratory Test Code	AMNM	Ammonium; Ammonium Ion; NH4+	A measurement of the ammonium ion (NH4+) in a biological specimen.	Ammonium Measurement
C186025	C65047		Laboratory Test Code	AMNMCRT	Ammonium/Creatinine	A relative measurement (ratio) of ammonium to creatinine in a biological specimen.	Ammonium to Creatinine Ratio Measurement
C81183	C65047		Laboratory Test Code	AMNOACID	AA; Amino Acids	A measurement of the total amino acids in a biological specimen.	Amino Acid Measurement
C204639	C65047		Laboratory Test Code	AMNPHTH1	1-Aminonaphthalene; 1-Naphthylamine	A measurement of the 1-aminonaphthalene in a specimen.	1-Aminonaphthalene Measurement
C204640	C65047		Laboratory Test Code	AMNPHTH2	2-Aminonaphthalene; 2-Naphthylamine	A measurement of the 2-aminonaphthalene in a specimen.	2-Aminonaphthalene Measurement
C74666	C65047		Laboratory Test Code	AMORPHSD	Amorphous Debris; Amorphous Sediment	A measurement of the amorphous sediment present in a biological specimen.	Amorphous Sediment Measurement
C75347	C65047		Laboratory Test Code	AMPEA	Alpha-Methylphenethylamine; Amphetamine	A measurement of the alpha-methylphenethylamine in a biological specimen.	Amphetamine Measurement
C74687	C65047		Laboratory Test Code	AMPHET	Amphetamine; Amphetamines	A measurement of any amphetamine class drug present in a biological specimen.	Amphetamine Drug Class Measurement
C102262	C65047		Laboratory Test Code	AMPHETD	d-amphetamine; Dextroamphetamine	A measurement of the dextroamphetamine in a biological specimen.	Dextroamphetamine Measurement
C64434	C65047		Laboratory Test Code	AMYLASE	Amylase	A measurement of the total enzyme amylase in a biological specimen.	Amylase Measurement
C111243	C65047		Laboratory Test Code	AMYLASEM	Macroamylase	A measurement of macroamylase in a biological specimen.	Macroamylase Measurement
C98767	C65047		Laboratory Test Code	AMYLASEP	Amylase, Pancreatic; Pancreatic Amylase Isoenzyme	A measurement of the pancreatic enzyme amylase in a biological specimen.	Pancreatic Amylase Measurement
C98780	C65047		Laboratory Test Code	AMYLASES	Amylase, Salivary; Salivary Amylase Isoenzyme	A measurement of the salivary enzyme amylase in a biological specimen.	Salivary Amylase Measurement
C103352	C65047		Laboratory Test Code	AMYLB38	Amyloid Beta 1-38; Amyloid Beta 38; Amyloid Beta 38 Protein	A measurement of amyloid beta protein which is composed of peptides 1 to 38 in a biological specimen.	Amyloid Beta 1-38 Measurement
C103353	C65047		Laboratory Test Code	AMYLB40	Amyloid Beta 1-40; Amyloid Beta 40; Amyloid Beta 40 Protein	A measurement of amyloid beta protein which is composed of peptides 1 to 40 in a biological specimen.	Amyloid Beta 1-40 Measurement
C184518	C65047		Laboratory Test Code	AMYLB41	Amyloid Beta 1-41; Amyloid Beta 41; Amyloid Beta 41 Protein	A measurement of amyloid beta protein which is composed of peptides 1 to 41 in a biological specimen.	Amyloid Beta 1-41 Measurement
C84809	C65047		Laboratory Test Code	AMYLB42	Amyloid Beta 1-42; Amyloid Beta 42; Amyloid Beta 42 Protein	A measurement of amyloid beta protein which is composed of peptides 1 to 42 in a biological specimen.	Beta Amyloid 42 Measurement
C125940	C65047		Laboratory Test Code	AMYLOIDA	Amyloid A	A measurement of the total amyloid A in a biological specimen.	Amyloid A Measurement
C81999	C65047		Laboratory Test Code	AMYLOIDB	Amyloid, Beta; Beta Amyloid	A measurement of the total amyloid beta in a biological specimen.	Beta Amyloid Measurement
C81998	C65047		Laboratory Test Code	AMYLOIDP	Amyloid P; Amyloid P Component; SAP; Serum Amyloid P Component	A measurement of the total amyloid P in a biological specimen.	Amyloid P Measurement
C147298	C65047		Laboratory Test Code	ANABASN	Anabasine	A measurement of the anabasine in a specimen.	Anabasine Measurement
C147299	C65047		Laboratory Test Code	ANAG	Alpha-N-acetylglucosaminidase	A measurement of the alpha-N-acetylglucosaminidase in a biological specimen.	Alpha-N-acetylglucosaminidase Measurement
C74842	C65047		Laboratory Test Code	ANDSTNDL	Androstenediol	A measurement of the androstenediol metabolite in a biological specimen.	Androstenediol Metabolite Measurement
C74843	C65047		Laboratory Test Code	ANDSTNDN	4-Androstenedione; Androstenedione	A measurement of the androstenedione hormone in a biological specimen.	Androstenedione Measurement
C186026	C65047		Laboratory Test Code	ANDSTRN	Androsterone	A measurement of the androsterone in a biological specimen.	Androsterone Measurement
C91372	C65047		Laboratory Test Code	ANGLBIND	Antiglobulin Test, Indirect; Indirect Coombs Test	A test that uses Coombs' reagent to detect the presence of anti-erythrocyte antibodies in a biological specimen.	Indirect Antiglobulin Test
C81974	C65047		Laboratory Test Code	ANGLOBDR	Antiglobulin Test Polyspecific, Direct; Antiglobulin Test, Direct; Direct Coombs Test	A measurement of the antibody or complement-coated erythrocytes in a biological specimen in vivo.	Direct Antiglobulin Test
C111128	C65047		Laboratory Test Code	ANGPT1	Angiopoietin 1	A measurement of angiopoietin 1 in a biological specimen.	Angiopoietin 1 Measurement
C163421	C65047		Laboratory Test Code	ANGPT2	ANG2; Angiopoietin 2	A measurement of angiopoietin 2 in a biological specimen.	Angiopoietin 2 Measurement
C225594	C65047		Laboratory Test Code	ANGPTL3	ANG-5; Angiopoietin 5; Angiopoietin-Like 3; Angiopoietin-Related Protein 3; ANGPT5	A measurement of the angiopoietin-related protein 3 in a biological specimen.	Angiopoietin-Related Protein 3 Measurement
C225595	C65047		Laboratory Test Code	ANGPTL38	Angiopoietin-Related Protein 3/8 Complex; ANGPTL3/8	A measurement of the angiopoietin-related protein 3 and angiopoietin-related protein 8 complex in a biological specimen.	Angiopoietin-Related Protein 3/8 Complex Measurement
C199911	C65047		Laboratory Test Code	ANGPTL4	Angiopoietin-Like 4; Angiopoietin-Related Protein 4; ARP4; FIAF; Hepatic Angiopoietin-Related Protein; HFARP; PGAR	A measurement of the angiopoietin-related protein 4 in a biological specimen.	Angiopoietin-Related Protein 4 Measurement
C225596	C65047		Laboratory Test Code	ANGPTL8	Angiopoietin-Like 8; Angiopoietin-Related Protein 8; Betatrophin; Lipasin	A measurement of the angiopoietin-related protein 8 in a biological specimen.	Angiopoietin-Related Protein 8 Measurement
C74844	C65047		Laboratory Test Code	ANGTNS1	Angiotensin I	A measurement of the angiotensin I hormone in a biological specimen.	Angiotensin I Measurement
C74845	C65047		Laboratory Test Code	ANGTNS2	Angiotensin II	A measurement of the angiotensin II hormone in a biological specimen.	Angiotensin II Measurement
C74846	C65047		Laboratory Test Code	ANGTNSGN	Angiotensin Precursor; Angiotensinogen	A measurement of the angiotensinogen hormone in a biological specimen.	Angiotensinogen Measurement
C74685	C65047		Laboratory Test Code	ANIONG	Anion Gap	A computed estimate of the unmeasured anions (those other than the chloride and bicarbonate anions) in a biological specimen.	Anion Gap Measurement
C147303	C65047		Laboratory Test Code	ANIONG3	Anion Gap 3	A computed estimate of the unmeasured anions (computed as sodium minus the chloride and bicarbonate) in a biological specimen.	Anion Gap 3 Measurement
C147304	C65047		Laboratory Test Code	ANIONG4	Anion Gap 4	A computed estimate of the unmeasured anions (computed as the difference between the sum of serum sodium + serum potassium and the sum of the serum bicarbonate+ chloride) in a biological specimen.	Anion Gap 4 Measurement
C74797	C65047		Laboratory Test Code	ANISO	Anisocytes; Anisocytosis	A measurement of the variability in the size of the red blood cells in a whole blood specimen.	Anisocyte Measurement
C161354	C65047		Laboratory Test Code	ANISOCHR	Anisochromia	A measurement of the color variation of erythrocytes in a biological specimen.	Anisochromia Measurement
C184568	C65047		Laboratory Test Code	ANLRDN	Anileridine	A measurement of the anileridine in a biological specimen.	Anileridine Measurement
C74886	C65047		Laboratory Test Code	ANP	Atrial Natriuretic Peptide; Atriopeptin	A measurement of the atrial natriuretic peptide in a biological specimen.	Atrial Natriuretic Peptide Measurement
C172523	C65047		Laboratory Test Code	ANPPROMR	Mid-Reg Pro-Atrial Natriuretic Peptide; Mid-Regional Pro-Atrial Natriuretic Peptide; MR-proANP; MRproANP	A measurement of the mid-regional pro-atrial natriuretic peptide in a biological specimen.	Mid-Regional Pro-Atrial Natriuretic Peptide Measurement
C139088	C65047		Laboratory Test Code	ANPPRONT	N-terminal pro-Atrial Natriuretic Peptide; N-Terminal ProA-type Natriuretic Peptide; NT proANP II	A measurement of the N-terminal proA-type natriuretic peptide in a biological specimen.	N-Terminal ProA-type Natriuretic Peptide Measurement
C81958	C65047		Laboratory Test Code	ANTHRMA	Antithrombin Activity; Antithrombin III Activity	A measurement of the antithrombin activity in a biological specimen.	Antithrombin Activity Measurement
C81977	C65047		Laboratory Test Code	ANTHRMAG	Antithrombin; Antithrombin Antigen; Antithrombin III; Antithrombin III Antigen	A measurement of the antithrombin antigen in a biological specimen.	Antithrombin Antigen Measurement
C74691	C65047		Laboratory Test Code	ANTIDPRS	Antidepressants	A measurement of any antidepressant class drug present in a biological specimen.	Antidepressant Measurement
C172525	C65047		Laboratory Test Code	APAPCYS	Acetaminophen Protein Adduct; Acetaminophen-Cysteine Adduct; APAP-CYS; APAP-Protein	A measurement of the acetaminophen-cysteine adducts in a biological specimen.	Acetaminophen-Cysteine Adduct Measurement
C221553	C65047		Laboratory Test Code	APAPGLC	Acetaminophen-Glucuronide Adduct	A measurement of the acetaminophen-glucuronide adducts in a biological specimen.	Acetaminophen-Glucuronide Adduct Measurement
C221552	C65047		Laboratory Test Code	APAPSULF	Acetaminophen-Sulfate Adduct	A measurement of the acetaminophen-sulfate adducts in a biological specimen.	Acetaminophen-Sulfate Adduct Measurement
C161372	C65047		Laboratory Test Code	APLASCPD	APTT-LA Screen to Confirm Percent Difference; PTT-LA Screen to Confirm Pct Difference	A measurement to confirm the presence of Lupus anticoagulants, calculated as [(Screen aPTT - Confirm aPTT)/Screen aPTT]x100.	APTT-LA Screen to Confirm Percent Difference
C103351	C65047		Laboratory Test Code	APLSMA2	Alpha-2 Antiplasmin; Alpha-2 Plasmin Inhibitor	A measurement of the alpha-2 antiplasmin in a biological specimen.	Alpha-2 Antiplasmin Measurement
C122094	C65047		Laboratory Test Code	APLSMA2A	Alpha-2 Antiplasmin Activity	A measurement of the alpha-2 antiplasmin activity in a biological specimen.	Alpha-2 Antiplasmin Activity Measurement
C124337	C65047		Laboratory Test Code	APOA	Apolipoprotein A	A measurement of the total apolipoprotein A in a biological specimen.	Apolipoprotein A Measurement
C74733	C65047		Laboratory Test Code	APOA1	Apolipoprotein A1	A measurement of the apolipoprotein A1 in a biological specimen.	Apolipoprotein A1 Measurement
C82000	C65047		Laboratory Test Code	APOA2	Apolipoprotein AII	A measurement of the apolipoprotein AII in a biological specimen.	Apolipoprotein AII Measurement
C103354	C65047		Laboratory Test Code	APOA4	Apolipoprotein A4	A measurement of the apolipoprotein A4 in a biological specimen.	Apolipoprotein A4 Measurement
C103355	C65047		Laboratory Test Code	APOA5	Apolipoprotein A5	A measurement of the apolipoprotein A5 in a biological specimen.	Apolipoprotein A5 Measurement
C74734	C65047		Laboratory Test Code	APOB	Apolipoprotein B	A measurement of the total apolipoprotein B in a biological specimen.	Apolipoprotein B Measurement
C120628	C65047		Laboratory Test Code	APOB100	Apolipoprotein B100	A measurement of the apolipoprotein B100 in a biological specimen.	Apolipoprotein B100 Measurement
C120629	C65047		Laboratory Test Code	APOB48	Apolipoprotein B48	A measurement of the apolipoprotein B48 in a biological specimen.	Apolipoprotein B48 Measurement
C103356	C65047		Laboratory Test Code	APOBAPA1	Apolipoprotein B/Apolipoprotein A1	A relative measurement (ratio or percentage) of the Apolipoprotein B to Apolipoprotein A1 in a biological specimen.	Apolipoprotein B to Apolipoprotein A1 Ratio Measurement
C120630	C65047		Laboratory Test Code	APOC1	Apolipoprotein CI	A measurement of the apolipoprotein CI in a biological specimen.	Apolipoprotein CI Measurement
C100427	C65047		Laboratory Test Code	APOC2	Apolipoprotein C2; Apolipoprotein CII	A measurement of the apolipoprotein C2 in a biological specimen.	Apolipoprotein C2 Measurement
C82001	C65047		Laboratory Test Code	APOC3	Apolipoprotein CIII	A measurement of the apolipoprotein CIII in a biological specimen.	Apolipoprotein CIII Measurement
C198281	C65047		Laboratory Test Code	APOD	Apolipoprotein D	A measurement of the apolipoprotein D in a biological specimen.	Apolipoprotein D Measurement
C82002	C65047		Laboratory Test Code	APOE	Apolipoprotein E	A measurement of the apolipoprotein E in a biological specimen.	Apolipoprotein E Measurement
C92293	C65047		Laboratory Test Code	APOE4	Apolipoprotein E4	A measurement of the apolipoprotein E4 in a biological specimen.	Apolipoprotein E4 Measurement
C82003	C65047		Laboratory Test Code	APOH	Apolipoprotein H	A measurement of the apolipoprotein H in a biological specimen.	Apolipoprotein H Measurement
C100428	C65047		Laboratory Test Code	APOJ	Apolipoprotein J; Clusterin	A measurement of the apolipoprotein J in a biological specimen.	Apolipoprotein J Measurement
C111130	C65047		Laboratory Test Code	APOJCRT	Apolipoprotein J/Creatinine; Clusterin/Creatinine	A relative measurement (ratio or percentage) of the apolipoprotein J to creatinine in a biological specimen.	Apolipoprotein J to Creatinine Ratio Measurement
C119268	C65047		Laboratory Test Code	APPA	Amyloid Alpha Precursor Protein	A measurement of the amyloid alpha precursor protein present in a biological specimen.	Amyloid Alpha Precursor Protein Measurement
C105438	C65047		Laboratory Test Code	APPB	Amyloid Beta Precursor; Amyloid Beta Precursor Protein; Amyloid Precursor Beta; Amyloid Precursor Protein	A measurement of the amyloid beta precursor protein present in a biological specimen.	Amyloid Beta Precursor Protein Measurement
C179695	C65047		Laboratory Test Code	APPEAR	Specimen Appearance	The outward or visible aspect of a specimen.	Specimen Appearance Assessment
C119269	C65047		Laboratory Test Code	APPT	Total Amyloid Precursor Protein	A measurement of the total amyloid precursor protein present in a biological specimen.	Total Amyloid Precursor Protein Measurement
C184578	C65047		Laboratory Test Code	APRBRBTL	Aprobarbital	A measurement of the aprobarbital in a biological specimen.	Aprobarbital Measurement
C156512	C65047		Laboratory Test Code	APRI	APRI Score; AST to Platelet Ratio Index	A calculation that indicates the likely presence of liver cirrhosis and fibrosis, measured as the relative measurement of aspartate aminotransferase (AST) to AST upper limit of normal, divided by the platelet count, and multiplied by 100.	Aspartate Aminotransferase to Platelet Ratio Index
C111123	C65047		Laboratory Test Code	APRIL	A Proliferation-Inducing Ligand; Soluble CD256; TNFSF13; Tumor Necrosis Factor Ligand Superfamily Member 13	A measurement of the a proliferation-inducing ligand in a biological specimen.	A Proliferation-Inducing Ligand Measurement
C100471	C65047		Laboratory Test Code	APROTCRS	Activated Protein C Resistance; Factor V Leiden Screen	A measurement of the resistance in the anticoagulation response to activated protein C in a biological specimen.	Activated Protein C Resistance Measurement
C209578	C65047		Laboratory Test Code	APSSCORE	Amyloid Probability Score; APS; Plasma Amyloid Probability Score	A probability score representing the estimated likelihood that the patient is amyloid positive on PET imaging.	Amyloid Probability Score
C38462	C65047		Laboratory Test Code	APTT	Activated Partial Thromboplastin Time	A measurement of the length of time that it takes for clotting to occur when activating reagents are added to a biological specimen. The test is partial due to the absence of tissue factor (Factor III) from the reaction mixture.	Activated Partial Thromboplastin Time
C161369	C65047		Laboratory Test Code	APTTLAAC	APTT-LA Actual/Control; Lupus Anticoagulant Sensitive APTT Actual/Control	A relative measurement (ratio or percentage) of the Lupus anticoagulant sensitive APTT in a subject's specimen when compared to a control specimen.	APTT-LA Actual to Control Ratio Measurement
C102277	C65047		Laboratory Test Code	APTTLAS	APTT-LA; APTTLA; Lupus Anticoagulant Sensitive APTT	A measurement of the length of time that it takes for clotting to occur when a lupus sensitive reagent is added to a plasma specimen.	Lupus Anticoagulant Sensitive APTT Measurement
C98862	C65047		Laboratory Test Code	APTTSTND	Activated Partial Thromboplastin Time/Standard Thromboplastin Time; Activated PTT/Standard; Activated PTT/Standard PTT	A relative measurement (ratio or percentage) of the subject's activated partial thromboplastin time to a standard or control partial thromboplastin time.	Activated PTT/Standard Ratio Measurement
C102259	C65047		Laboratory Test Code	ARA	Arachidonic Acid	A measurement of the arachidonic acid present in a biological specimen.	Arachidonic Acid Measurement
C199888	C65047		Laboratory Test Code	AREG	Amphiregulin; Schwannoma-Derived Growth Factor; SDGF	A measurement of the amphiregulin in a biological specimen.	Amphiregulin Measurement
C122095	C65047		Laboratory Test Code	ARG	Arginine	A measurement of the arginine in a biological specimen.	Arginine Measurement
C154763	C65047		Laboratory Test Code	ARGSAC	Argininosuccinate; Argininosuccinic Acid	A measurement of the argininosuccinic acid in a biological specimen.	Argininosuccinic Acid Measurement
C177974	C65047		Laboratory Test Code	ARPIPZL	Aripiprazole	A measurement of the aripiprazole in a biological specimen.	Aripiprazole Measurement
C124338	C65047		Laboratory Test Code	ARR	Aldosterone/Renin Activity	A relative measurement (ratio) of the aldosterone to renin activity in a biological specimen.	Aldosterone to Renin Activity Ratio Measurement
C147305	C65047		Laboratory Test Code	ARSENIC	Arsenic; As	A measurement of the arsenic in a specimen.	Arsenic Measurement
C177985	C65047		Laboratory Test Code	ASENAPN	Asenapine	A measurement of the asenapine in a biological specimen.	Asenapine Measurement
C163422	C65047		Laboratory Test Code	ASMACT	Alpha-Actin 2; Alpha-SMA; Alpha-Smooth Muscle Actin	A measurement of the alpha-smooth muscle actin in a biological specimen.	Alpha-Smooth Muscle Actin Measurement
C122096	C65047		Laboratory Test Code	ASN	Asparagine	A measurement of the asparagine in a biological specimen.	Asparagine Measurement
C122097	C65047		Laboratory Test Code	ASP	Aspartate; Aspartic Acid	A measurement of the aspartic acid in a biological specimen.	Aspartic Acid Measurement
C92269	C65047		Laboratory Test Code	ASSDNA	Anti-Single Stranded DNA IgG	A measurement of the anti-single stranded DNA IgG antibody in a biological specimen.	Anti-Single Stranded DNA IgG Measurement
C64467	C65047		Laboratory Test Code	AST	Aspartate Aminotransferase; Aspartate Aminotransferase Antigen; SGOT; SGOT Antigen	A measurement of the aspartate aminotransferase in a biological specimen.	Aspartate Aminotransferase Measurement
C176297	C65047		Laboratory Test Code	ASTALT	AST/ALT	A relative measurement (ratio or percentage) of the aspartate aminotransferase (AST) to alanine aminotransferase (ALT) present in a sample.	Aspartate Aminotransferase to Alanine Aminotransferase Ratio Measurement
C201427	C65047		Laboratory Test Code	ASTC	Aspartate Aminotransferase Isoenzyme C; Aspartate Aminotransferase Isoenzyme Cytoplasmic; C-AST; cAspAT; Cytoplasmic Isoenzyme of Aspartate Aminotransferase; SGOT Isoenzyme C	A measurement of the aspartate aminotransferase isoenzyme C in a biological specimen.	Aspartate Aminotransferase Isoenzyme C Measurement
C158225	C65047		Laboratory Test Code	ASTCK	Aspartate Aminotransferase/CPK; Aspartate Aminotransferase/Creatine Kinase; AST/Creatine Kinase	A relative measurement (ratio) of the aspartate aminotransferase to creatine kinase in a biological specimen.	Aspartate Aminotransferase to Creatine Kinase Ratio Measurement
C117830	C65047		Laboratory Test Code	ASTCREAT	Aspartate Aminotransferase/Creatinine	A relative measurement (ratio or percentage) of the aspartate aminotransferase to creatinine in a biological specimen.	Aspartate Aminotransferase to Creatinine Ratio Measurement
C186027	C65047		Laboratory Test Code	ASTDLG3A	3-Alpha-Androstanediol Glucuronide	A measurement of the 3-alpha-androstanediol glucuronide in a biological specimen.	3-Alpha-Androstanediol Glucuronide Measurement
C201428	C65047		Laboratory Test Code	ASTM	Aspartate Aminotransferase Isoenzyme M; Aspartate Aminotransferase Isoenzyme Mitochondrial; M-AST; mAspAT; Mitochondrial Isoenzyme of Aspartate Aminotransferase; SGOT Isoenzyme M	A measurement of the aspartate aminotransferase isoenzyme M in a biological specimen.	Aspartate Aminotransferase Isoenzyme M Measurement
C142272	C65047		Laboratory Test Code	ASYNP	Alpha Synuclein Protein	A measurement of the alpha synuclein protein in a biological specimen.	Alpha Synuclein Protein Measurement
C147306	C65047		Laboratory Test Code	ATHMBAAC	Antithrombin Activity Actual/Antithrombin Activity Control; Antithrombin Activity Actual/Control; Antithrombin Activity Actual/Normal	A relative measurement (ratio or percentage) of the biological activity of antithrombin in a subject's specimen when compared to the same activity in a control specimen.	Antithrombin Activity Actual to Control Ratio Measurement
C170592	C65047		Laboratory Test Code	ATHMBAC	Antithrombin Actual/Control; Antithrombin Actual/Normal	A relative measurement (ratio or percentage) of the Antithrombin in a subject's specimen when compared to a control specimen.	Antithrombin Actual to Control Ratio Measurement
C154726	C65047		Laboratory Test Code	ATHPIDX	AIP; Atherogenic Index; Atherogenic Index of Plasma	A measurement of the base 10 logarithm of the ratio of molar concentration of plasma triglyceride to high density lipoprotein cholesterol in a biological specimen.	Atherogenic Index of Plasma
C199912	C65047		Laboratory Test Code	ATLKPRTN	ALK1; Antileukoproteinase; BLPI; Proteinase Inhibitor WAP4; Secretory Leukocyte Peptidase Inhibitor; Secretory Leukocyte Protease Inhibitor	A measurement of the antileukoproteinase in a biological specimen.	Antileukoproteinase Measurement
C147307	C65047		Laboratory Test Code	ATP	Adenosine Triphosphate	A measurement of the adenosine triphosphate in a biological specimen.	Adenosine Triphosphate Measurement
C103350	C65047		Laboratory Test Code	ATPVITE	Alpha Tocopherol/Vitamin E	A relative measurement (ratio or percentage) of alpha-tocopherol to the total vitamin E in a biological specimen.	Alpha Tocopherol to Vitamin E Ratio Measurement
C74657	C65047		Laboratory Test Code	AUERRODS	Auer Rods	A measurement of the Auer rods (elongated needle structures that are found in the cytoplasm of leukemic blasts and are formed by clumps of azurophilic granular material) in a biological specimen.	Auer Rod Measurement
C165943	C65047		Laboratory Test Code	AXL	ARK; AXL Receptor Tyrosine Kinase; JTK11; Tyro7; UFO	A measurement of the AXL receptor tyrosine kinase in a biological specimen.	AXL Receptor Tyrosine Kinase Measurement
C116185	C65047		Laboratory Test Code	AZURGRAN	Azurophilic Granulation; Azurophilic Granules	An observation of azurophilic granules in a biological specimen.	Azurophilic Granule Measurement
C127607	C65047		Laboratory Test Code	B1BGLP	Beta-1B Glycoprotein; Hemopexin; HPX	A measurement of the beta-1B glycoprotein in a biological specimen.	Beta-1B Glycoprotein Measurement
C127608	C65047		Laboratory Test Code	B2MCREAT	Beta-2 Microglobulin/Creatinine	A relative measurement (ratio) of the beta-2 microglobulin to creatinine in a biological specimen.	Beta-2 Microglobulin to Creatinine Ratio Measurement
C81980	C65047		Laboratory Test Code	B2MICG	Beta-2 Microglobulin	A measurement of the beta-2 microglobulin in a biological specimen.	Beta-2 Microglobulin Measurement
C64469	C65047		Laboratory Test Code	BACT	Bacteria	A measurement of the bacteria in a biological specimen.	Bacterial Count
C111135	C65047		Laboratory Test Code	BAFF	B-Cell Activating Factor	A measurement of the B-cell activating factor in a biological specimen.	B-Cell Activating Factor Measurement
C154764	C65047		Laboratory Test Code	BALA	Beta Alanine	A measurement of the beta alanine in a biological specimen.	Beta Alanine Measurement
C154765	C65047		Laboratory Test Code	BAMBTAC	BABA; Beta-aminobutyrate; Beta-Aminobutyric Acid	A measurement of the beta-aminobutyric acid in a biological specimen.	Beta-Aminobutyric Acid Measurement
C74688	C65047		Laboratory Test Code	BARB	Barbiturates	A measurement of any barbiturate class drug present in a biological specimen.	Barbiturate Drug Class Measurement
C147309	C65047		Laboratory Test Code	BASEDEF	Base Deficit	A measurement of the amount of alkali required to return a biological specimen to a normal pH under standard conditions.	Base Deficit
C119270	C65047		Laboratory Test Code	BASEEXCS	Actual Base Excess; Base Excess	A calculated measurement of the amount of acid required to return blood to a normal pH under standard conditions.	Base Excess Measurement
C64470	C65047		Laboratory Test Code	BASO	Basophils	A measurement of the basophils in a biological specimen.	Absolute Basophil Count
C130154	C65047		Laboratory Test Code	BASOB	Basophils Band Form	A measurement of the banded basophils in a biological specimen.	Basophil Band Form Count
C130155	C65047		Laboratory Test Code	BASOBLE	Basophils Band Form/Leukocytes	A relative measurement (ratio or percentage) of the banded basophils to leukocytes in a biological specimen.	Basophil Band Form to Leukocytes Ratio Measurement
C98865	C65047		Laboratory Test Code	BASOCE	Basophils/Total Cells	A relative measurement (ratio or percentage) of the basophils to total cells in a biological specimen (for example a bone marrow specimen).	Basophil to Total Cell Ratio Measurement
C96670	C65047		Laboratory Test Code	BASOIM	Immature Basophils	A measurement of the immature basophils in a biological specimen.	Immature Basophil Count
C96671	C65047		Laboratory Test Code	BASOIMLE	Immature Basophils/Leukocytes	A relative measurement (ratio or percentage) of immature basophils to total leukocytes in a biological specimen.	Immature Basophil to Leukocyte Ratio Measurement
C64471	C65047		Laboratory Test Code	BASOLE	Basophils/Leukocytes	A relative measurement (ratio or percentage) of the basophils to leukocytes in a biological specimen.	Basophil to Leukocyte Ratio
C135399	C65047		Laboratory Test Code	BASOMM	Basophilic Metamyelocytes	A measurement of the basophilic metamyelocytes in a biological specimen.	Basophilic Metamyelocyte Count
C135400	C65047		Laboratory Test Code	BASOMYL	Basophilic Myelocytes	A measurement of the basophilic myelocytes in a biological specimen.	Basophilic Myelocyte Count
C181448	C65047		Laboratory Test Code	BASOMYLY	Basophilic Myelocytes/Lymphocytes	A relative measurement (ratio or percentage) of the basophilic myelocytes to lymphocytes in a biological specimen (for example a bone marrow specimen).	Basophilic Myelocytes to Lymphocytes Ratio Measurement
C135401	C65047		Laboratory Test Code	BASOSG	Basophils, Segmented	A measurement of the segmented basophils in a biological specimen.	Segmented Basophil Count
C123455	C65047		Laboratory Test Code	BCEFNCTN	Beta-cell Function	A measurement of the beta cell function (insulin production and secretion) in a biological specimen.	Beta-Cell Function Measurement
C170577	C65047		Laboratory Test Code	BCMAS	Soluble B Cell Maturation Antigen; Soluble BCM; Soluble BCMA; Soluble CD269; Soluble TNF Receptor Superfamily Member 17; Soluble TNFRSF13A	A measurement of the soluble B cell maturation antigen in a biological specimen.	Soluble B Cell Maturation Antigen Measurement
C122102	C65047		Laboratory Test Code	BD2	Beta-defensin 2	A measurement of the beta-defensin 2 in a biological specimen.	Beta-defensin 2 Measurement
C82004	C65047		Laboratory Test Code	BDNF	Brain-Derived Neurotrophic Factor	A measurement of the brain-derived neurotrophic factor in a biological specimen.	Brain-Derived Neurotrophic Factor Measurement
C204645	C65047		Laboratory Test Code	BENZENE	Benzene	A measurement of the benzene in a specimen.	Benzene Measurement
C100472	C65047		Laboratory Test Code	BETACRTN	b-Carotene; Beta Carotene; Beta Carotin	A measurement of the beta carotene in a biological specimen.	Beta Carotene Measurement
C172517	C65047		Laboratory Test Code	BETAINES	Betaines	A measurement of the betaine class compounds in a biological specimen.	Betaines Measurement
C184531	C65047		Laboratory Test Code	BFTNN	Bufotenine	A measurement of the bufotenine in a biological specimen.	Bufotenine Measurement
C172497	C65047		Laboratory Test Code	BGTCPHRL	Beta and Gamma Tocopherol; Beta+Gamma Tocopherol	A measurement of the beta and gamma tocopherol in a biological specimen.	Beta and Gamma Tocopherol Measurement
C186028	C65047		Laboratory Test Code	BHBACTAC	Beta-Hydroxybutyrate/Acetoacetate	A relative measurement (ratio) of the beta-hydroxybutyrate to acetoacetate in a biological specimen.	Beta-Hydroxybutyrate to Acetoacetate Ratio Measurement
C189520	C65047		Laboratory Test Code	BHBEXR	3-Hydroxybutyrate Excretion Rate; B-Hydroxybutyrate Excretion Rate; Beta-Hydroxybutyrate Excretion Rate; BHB Excretion Rate	A measurement of the amount of beta-Hydroxybutyrate being excreted in a biological specimen over a defined period of time (e.g. one hour).	Beta-Hydroxybutyrate Excretion Rate Measurement
C96568	C65047		Laboratory Test Code	BHYXBTR	3-Hydroxybutyrate; B-Hydroxybutyrate; Beta-Hydroxybutyrate; Beta-Hydroxybutyric Acid; BHB	A measurement of the total Beta-hydroxybutyrate in a biological specimen.	Beta-Hydroxybutyrate Measurement
C74667	C65047		Laboratory Test Code	BICARB	Bicarbonate; HCO3	A measurement of the bicarbonate in a biological specimen.	Bicarbonate Measurement
C214677	C65047		Laboratory Test Code	BILDELTA	Albumin-Bound Bilirubin; Biliprotein; Delta Bilirubin; Delta Fraction	A measurement of the albumin-bound bilirubin in a biological specimen.	Delta Bilirubin Measurement
C64481	C65047		Laboratory Test Code	BILDIR	Conjugated Bilirubin + Albumin-Bound Bilirubin; Conjugated Bilirubin + Delta Bilirubin; Direct Bilirubin	A measurement of the glucuronidated bilirubin and albumin-bound bilirubin in a biological specimen.	Direct Bilirubin Measurement
C158226	C65047		Laboratory Test Code	BILDIRBI	Direct Bilirubin/Bilirubin	A relative measurement (ratio or percentage) of the direct bilirubin to total bilirubin in a biological specimen.	Direct Bilirubin to Bilirubin Ratio Measurement
C74800	C65047		Laboratory Test Code	BILEAC	Bile Acid; Bile Acids; Bile Salt; Bile Salts	A measurement of the total bile acids in a biological specimen.	Bile Acid Measurement
C214676	C65047		Laboratory Test Code	BILGLC	Conjugated Bilirubin; Glucuronidated Bilirubin	A measurement of the glucuronidated bilirubin (water soluble) in a biological specimen.	Glucuronidated Bilirubin Measurement
C38037	C65047		Laboratory Test Code	BILI	Bilirubin; Total Bilirubin	A measurement of the total bilirubin in a biological specimen.	Total Bilirubin Measurement
C64483	C65047		Laboratory Test Code	BILIND	Indirect Bilirubin; Non-Glucuronidated Bilirubin; Unconjugated Bilirubin	A measurement of the unconjugated or non-water-soluble bilirubin in a biological specimen.	Indirect Bilirubin Measurement
C74700	C65047		Laboratory Test Code	BITECE	Bite Cells	A measurement of the bite cells (erythrocytes with the appearance of a bite having been removed, due to oxidative hemolysis) in a biological specimen.	Bite Cell Count
C111136	C65047		Laboratory Test Code	BJPROT	Bence-Jones Protein	A measurement of the total Bence-Jones protein in a biological specimen.	Bence-Jones Protein Measurement
C74605	C65047		Laboratory Test Code	BLAST	Blasts	A measurement of the blast cells in a biological specimen.	Blast Count
C150836	C65047		Laboratory Test Code	BLASTCE	Blasts/Total Cells	A relative measurement (ratio or percentage) of the blasts to total cells in a biological specimen.	Blasts to Total Cells Ratio Measurement
C147311	C65047		Laboratory Test Code	BLASTERY	Basophilic Erythroblast	A measurement of the basophilic erythroblasts in a biological specimen taken from a non-human organism.	Basophilic Erythroblast Count
C103407	C65047		Laboratory Test Code	BLASTIMM	Immunoblastic Lymphocytes; Immunoblasts	A measurement of the immunoblasts in a biological specimen.	Immunoblast Count
C64487	C65047		Laboratory Test Code	BLASTLE	Blasts/Leukocytes	A relative measurement (ratio or percentage) of the blasts to leukocytes in a biological specimen.	Blast to Leukocyte Ratio
C74630	C65047		Laboratory Test Code	BLASTLM	Leukemic Blasts	A measurement of the leukemic blasts (lymphoblasts and/or myeloblasts that remain in an immature state even when outside the bone marrow) in a biological specimen.	Leukemic Blast Count
C100446	C65047		Laboratory Test Code	BLASTRUB	Proerythroblast; Pronormoblast; Rubriblast	A measurement of the rubriblasts in a biological specimen.	Proerythroblast Measurement
C89775	C65047		Laboratory Test Code	BLEEDT	Bleeding Time; Clotting Time Homeostasis	A measurement of the time from the start to cessation of an induced bleed.	Bleeding Time
C127609	C65047		Laboratory Test Code	BLISTCE	Blister Cell	A measurement of the blister cells in a biological specimen.	Blister Cell Count
C106535	C65047		Laboratory Test Code	BLSTIMLY	Immunoblasts/Lymphocytes; Lymphocytes, Immunoblastic/Lymphocytes	A relative measurement (ratio or percentage) of immunoblasts to all lymphocytes present in a sample.	Immunoblasts to Lymphocytes Ratio Measurement
C74641	C65047		Laboratory Test Code	BLSTLMLY	Leukemic Blasts/Lymphocytes	A relative measurement (ratio or percentage) of the leukemic blasts (immature lymphoblasts and/or myeloblasts) to mature lymphocytes in a biological specimen.	Leukemic Blast to Lymphocyte Ratio Measurement
C102278	C65047		Laboratory Test Code	BLSTLY	Lymphoblasts; Lymphoid Blasts	A measurement of the lymphoblasts (immature cells that differentiate to form lymphocytes) in a biological specimen.	Lymphoblast Count
C105444	C65047		Laboratory Test Code	BLSTLYLE	Lymphoblasts/Leukocytes	A relative measurement (ratio or percentage) of the lymphoblasts to leukocytes in a biological specimen.	Lymphoblast to Leukocyte Ratio Measurement
C189503	C65047		Laboratory Test Code	BLSTLYLY	Lymphoblasts/Lymphocytes	A relative measurement (ratio or percentage) of the lymphoblasts to lymphocytes in a biological specimen.	Lymphoblast to Lymphocyte Ratio Measurement
C98761	C65047		Laboratory Test Code	BLSTMBCE	Myeloblasts/Total Cells	A relative measurement (ratio or percentage) of the myeloblasts to total cells in a biological specimen (for example a bone marrow specimen).	Myeloblast to Total Cell Ratio Measurement
C98752	C65047		Laboratory Test Code	BLSTMGK	Megakaryoblasts	A measurement of the megakaryoblasts in a biological specimen.	Megakaryoblast Cell Count
C98753	C65047		Laboratory Test Code	BLSTMKCE	Megakaryoblasts/Total Cells	A relative measurement (ratio or percentage) of the megakaryoblasts to total cells in a biological specimen (for example a bone marrow specimen).	Megakaryoblast to Total Cell Ratio Measurement
C187813	C65047		Laboratory Test Code	BLSTMKLE	Megakaryoblasts/Leukocytes	A relative measurement (ratio or percentage) of megakaryoblasts to total leukocytes in a biological specimen.	Megakaryoblasts to Leukocytes Ratio Measurement
C189501	C65047		Laboratory Test Code	BLSTNM	Normoblasts	A measurement of the normoblasts in a biological specimen.	Normoblast Count
C98764	C65047		Laboratory Test Code	BLSTNMCE	Normoblasts/Total Cells	A relative measurement (ratio or percentage) of the normoblasts to total cells in a biological specimen (for example a bone marrow specimen).	Normoblast to Total Cell Ratio Measurement
C98870	C65047		Laboratory Test Code	BLSTRBCE	Proerythroblast/Total Cells; Pronormoblasts/Total Cells; Rubriblast/Total Cells	A relative measurement (ratio or percentage) of the rubriblasts to total cells in a biological specimen (for example a bone marrow specimen).	Pronormoblast to Total Cell Ratio Measurement
C100419	C65047		Laboratory Test Code	BLSTRSID	Ringed Sideroblasts	A measurement of the ringed sideroblasts (abnormal nucleated erythroblasts with a large number of iron deposits in the perinuclear mitochondria, forming a ring around the nucleus) in a biological specimen.	Ring Sideroblast Measurement
C100418	C65047		Laboratory Test Code	BLSTSID	Sideroblast	A measurement of the sideroblasts (nucleated erythroblasts with iron granules in the cytoplasm) in a biological specimen.	Sideroblast Measurement
C174314	C65047		Laboratory Test Code	BLYCE	B Cells; B-Cell Lymphocytes; B-Cells; B-Lymphocytes	A measurement of the B-lymphocytes in a biological specimen.	B-Lymphocyte Count
C174317	C65047		Laboratory Test Code	BLYCECE	B-Lymphocytes/Total Cells	A relative measurement (ratio or percentage) of the B-lymphocytes to total cells in a biological specimen.	B-Lymphocyte to Total Cells Ratio Measurement
C174316	C65047		Laboratory Test Code	BLYCELE	B Cells/Leukocytes; B-Lymphocytes/Leukocytes; BLym/Leuk	A relative measurement (ratio or percentage) of B-lymphocytes to leukocytes in a biological specimen.	B-Lymphocyte to Leukocyte Ratio Measurement
C174315	C65047		Laboratory Test Code	BLYCELY	B-Lymphocytes/Lymphocytes	A relative measurement (ratio or percentage) of the B-lymphocytes to total lymphocytes in a biological specimen.	B-Lymphocyte to Lymphocyte Ratio Measurement
C128951	C65047		Laboratory Test Code	BLYMXM	B-lymphocyte Crossmatch	A measurement to determine human leukocyte antigens (HLA) histocompatibility between the recipient and the donor by examining the presence or absence of the recipient's anti-HLA antibody reactivity towards HLA antigens expressed on the donor B-lymphocytes.	B-lymphocyte Crossmatch Measurement
C74735	C65047		Laboratory Test Code	BNP	B-Type Natriuretic Peptide; Brain Natriuretic Peptide	A measurement of the brain (B-type) natriuretic peptide in a biological specimen.	Brain Natriuretic Peptide Measurement
C82032	C65047		Laboratory Test Code	BNPPRO	Pro-Brain Natriuretic Peptide; ProB-type Natriuretic Peptide; proBNP	A measurement of the proB-type natriuretic peptide in a biological specimen.	ProB-Type Natriuretic Peptide Measurement
C96610	C65047		Laboratory Test Code	BNPPRONT	N-terminal pro-Brain Natriuretic Peptide; N-Terminal ProB-type Natriuretic Peptide; NT proBNP II	A measurement of the N-terminal proB-type natriuretic peptide in a biological specimen.	N-Terminal ProB-type Natriuretic Peptide Measurement
C74692	C65047		Laboratory Test Code	BNZDZPN	Benzodiazepine	A measurement of any benzodiazepine class drug present in a biological specimen.	Benzodiazepine Measurement
C75350	C65047		Laboratory Test Code	BNZLCGN	Benzoylecgonine	A measurement of the benzoylecgonine in a biological specimen.	Benzoylecgonine Measurement
C75380	C65047		Laboratory Test Code	BOLDNON	Boldenone	A measurement of the boldenone in a biological specimen.	Boldenone Measurement
C184579	C65047		Laboratory Test Code	BOLSTRN	Bolasterone	A measurement of the bolasterone in a biological specimen.	Bolasterone Measurement
C184608	C65047		Laboratory Test Code	BRBTL	Barbital	A measurement of the barbital in a biological specimen.	Barbital Measurement
C184609	C65047		Laboratory Test Code	BRMZPM	Bromazepam	A measurement of the bromazepam in a biological specimen.	Bromazepam Measurement
C184639	C65047		Laboratory Test Code	BRVRCTM	Brivaracetam	A measurement of the brivaracetam in a biological specimen.	Brivaracetam Measurement
C177973	C65047		Laboratory Test Code	BRXPIPZL	Brexpiprazole	A measurement of the brexpiprazole in a biological specimen.	Brexpiprazole Measurement
C199889	C65047		Laboratory Test Code	BTC	Betacellulin	A measurement of the betacellulin in a biological specimen.	Betacellulin Measurement
C74634	C65047		Laboratory Test Code	BTECERBC	Bite Cells/Erythrocytes	A relative measurement (ratio or percentage) of bite cells (erythrocytes with the appearance of a bite having been removed, due to oxidative hemolysis) to all erythrocytes in a biological specimen.	Bite Cell to Erythrocyte Ratio Measurement
C165772	C65047		Laboratory Test Code	BTK	Agammaglobulinemia Tyrosine Kinase; ATK; B-cell Progenitor Kinase; Bruton Tyrosine Kinase; Bruton's Tyrosine Kinase; Tyrosine-protein kinase BTK	A measurement of the Bruton's tyrosine kinase in a biological specimen.	Bruton's Tyrosine Kinase Measurement
C165944	C65047		Laboratory Test Code	BTKFR	Bruton's Tyrosine Kinase, Free	A measurement of the free Bruton's tyrosine kinase in a biological specimen.	Free Bruton's Tyrosine Kinase Measurement
C75364	C65047		Laboratory Test Code	BTLBARTL	Butabarbital	A measurement of the butabarbital in a biological specimen.	Butabarbital Measurement
C75365	C65047		Laboratory Test Code	BTLBTL	Butalbital	A measurement of the butalbital present in a biological specimen.	Butalbital Measurement
C184610	C65047		Laboratory Test Code	BTRPHNL	Butorphanol	A measurement of the butorphanol in a biological specimen.	Butorphanol Measurement
C111142	C65047		Laboratory Test Code	BUCHE	Acylcholine Acylhydrolase; Butyrylcholinesterase; Non-neuronal Cholinesterase; Plasma Cholinesterase; Pseudocholinesterase	A measurement of the total butyrylcholinesterase in a biological specimen.	Butyrylcholinesterase Measurement
C75352	C65047		Laboratory Test Code	BUPREN	Buprenorphine	A measurement of the buprenorphine drug present in a biological specimen.	Buprenorphine Measurement
C209579	C65047		Laboratory Test Code	BUPROP	Bupropion	A measurement of the bupropion in a biological specimen.	Bupropion Measurement
C74701	C65047		Laboratory Test Code	BURRCE	Burr Cells; Echinocytes	A measurement of the Burr cells (erythrocytes characterized by the presence of small, blunt projections evenly distributed across the cell surface) in a biological specimen.	Burr Cell Count
C204638	C65047		Laboratory Test Code	BUTDN1_3	1,3-Butadiene	A measurement of the 1,3-butadiene in a specimen.	1,3-Butadiene Measurement
C184532	C65047		Laboratory Test Code	BUTYLN	Butylone	A measurement of the butylone in a biological specimen.	Butylone Measurement
C204646	C65047		Laboratory Test Code	BZAPYR	3,4-Benzpyrene; Benz(a)pyrene; Benz[a]pyrene; Benzo(a)pyrene; Benzo[a]pyrene	A measurement of the benzo[a]pyrene in a specimen.	Benzo[a]pyrene Measurement
C184554	C65047		Laboratory Test Code	BZP	1-benzylpiperazine; Benzylpiperazine; N-benzylpiperazine	A measurement of the benzylpiperazine in a biological specimen.	Benzylpiperazine Measurement
C147313	C65047		Laboratory Test Code	C1INH	Complement C1 Esterase Inhibitor	A measurement of the complement C1 esterase inhibitor in a biological specimen.	Complement C1 Esterase Inhibitor Measurement
C221554	C65047		Laboratory Test Code	C1M	C1M; MMP-Degraded Type I collagen Fragment C1M	A measurement of the MMP-degraded type I collagen fragment C1M in a biological specimen.	MMP-Degraded Type I Collagen Fragment C1M Measurement
C186029	C65047		Laboratory Test Code	C1Q	Complement C1q	A measurement of the complement C1q in a biological specimen.	Complement C1q Measurement
C202394	C65047		Laboratory Test Code	C2	ARMD14; Complement C2	A measurement of the complement C2 in a biological specimen.	Complement C2 Measurement
C204634	C65047		Laboratory Test Code	C2FR	Complement C2, Free	A measurement of the free complement C2 in a biological specimen.	Free Complement C2 Measurement
C204633	C65047		Laboratory Test Code	C2FRC2	Complement C2, Free/Complement C2	A relative measurement (ratio or percentage) of the free complement C2 to total complement C2 in a biological specimen.	Free Complement C2 to Complement C2 Ratio Measurement
C221555	C65047		Laboratory Test Code	C2M	C2M; MMP-Degraded Type II collagen Fragment C2M	A measurement of the MMP-degraded type II collagen fragment C2M in a biological specimen.	MMP-Degraded Type II Collagen Fragment C2M Measurement
C80174	C65047		Laboratory Test Code	C3	Complement C3	A measurement of the complement C3 in a biological specimen.	Complement C3 Measurement
C80175	C65047		Laboratory Test Code	C3A	Complement C3a	A measurement of the complement C3a in a biological specimen.	Complement C3a Measurement
C163423	C65047		Laboratory Test Code	C3ADARG	Acylation-Stimulating Protein; ASP; Complement C3a DesArg	A measurement of the complement C3a DesArg in a biological specimen.	Complement C3a DesArg Measurement
C80176	C65047		Laboratory Test Code	C3B	Complement C3b	A measurement of the complement C3b in a biological specimen.	Complement C3b Measurement
C184521	C65047		Laboratory Test Code	C3C	Complement C3c	A measurement of the complement C3c in a biological specimen.	Complement C3c Measurement
C165945	C65047		Laboratory Test Code	C3M	Collagen III Neo-Peptide C3M	A measurement of the collagen III neo-peptide C3M in a biological specimen.	Collagen III Neo-Peptide C3M Measurement
C80177	C65047		Laboratory Test Code	C4	Complement C4	A measurement of the complement C4 in a biological specimen.	Complement C4 Measurement
C80178	C65047		Laboratory Test Code	C4A	Complement C4a	A measurement of the complement C4a in a biological specimen.	Complement C4a Measurement
C127610	C65047		Laboratory Test Code	C4D	Complement C4d	A measurement of the complement C4d in a biological specimen.	Complement C4d Measurement
C221557	C65047		Laboratory Test Code	C4G	C4G; MMP-Degraded Type IV collagen Fragment C4G	A measurement of the MMP-degraded type IV collagen fragment C4G in a biological specimen.	MMP-Degraded Type IV Collagen Fragment C4G Measurement
C221556	C65047		Laboratory Test Code	C4M	C4M; MMP-Degraded Type IV collagen Fragment C4M	A measurement of the MMP-degraded type IV collagen fragment C4M in a biological specimen.	MMP-Degraded Type IV Collagen Fragment C4M Measurement
C221558	C65047		Laboratory Test Code	C4MA3	C4Ma3; MMP-2,9,12 Degraded Type IV Collagen Alpha 3	A measurement of the MMP-2,9,12-degraded type IV collagen alpha 3 fragment C4Ma3 in a biological specimen.	MMP 2,9,12-Degraded Type IV Collagen Alpha 3 Fragment C4Ma3 Measurement
C160935	C65047		Laboratory Test Code	C5	Complement C5	A measurement of the total complement C5 in a biological specimen.	Complement C5 Measurement
C80179	C65047		Laboratory Test Code	C5A	Complement C5a	A measurement of the complement C5a in a biological specimen.	Complement C5a Measurement
C158235	C65047		Laboratory Test Code	C5B9	Complement C5b-9	A measurement of the complement C5b-9 in a biological specimen.	Complement C5b-9 Measurement
C170579	C65047		Laboratory Test Code	C5B9S	sC5b-9; Smac; Soluble Complement C5b-9; Soluble MAC; Soluble Membrane Attack Complex; TCC; Terminal Complement Complex	A measurement of the soluble complement C5b-9 in a biological specimen.	Soluble Complement C5b-9 Measurement
C161357	C65047		Laboratory Test Code	C5FR	Complement C5, Free	A measurement of the free complement C5 in a biological specimen.	Free Complement C5 Measurement
C221559	C65047		Laboratory Test Code	C6M	C6M; MMP-2 Degraded Type VI Collagen C6M	A measurement of the MMP2-degraded type VI collagen fragment C6M in a biological specimen.	MMP 2-Degraded Type VI Collagen Fragment C6M Measurement
C221560	C65047		Laboratory Test Code	C6MA3	C6Ma3; MMP-2 and MMP-9 Degraded Type VI Collagen alpha-3 subunit C6M	A measurement of the MMP-2-egraded Type VI Collagen alpha-3 subunit fragment C6Ma3 in a biological specimen.	MMP 2-Degraded Type VI Collagen Alpha-3 Subunit Fragment C6Ma3 Measurement
C64488	C65047		Laboratory Test Code	CA	Calcium	A measurement of the calcium in a biological specimen.	Calcium Measurement
C79089	C65047		Laboratory Test Code	CA125AG	CA125; CA125AG; Cancer Antigen 125; Carbohydrate Antigen 125; MUC16; Mucin-16; Mucin-16, Cell Surface Associated	A measurement of the cancer antigen 125 in a biological specimen.	CA-125 Measurement
C103362	C65047		Laboratory Test Code	CA15_3AG	Cancer Antigen 15-3; Carbohydrate Antigen 15-3	A measurement of the cancer antigen 15-3 in a biological specimen.	Cancer Antigen 15-3 Measurement
C81982	C65047		Laboratory Test Code	CA19_9AG	Cancer Antigen 19-9; Carbohydrate Antigen 19-9	A measurement of the cancer antigen 19-9 in a biological specimen.	Cancer Antigen 19-9 Measurement
C103361	C65047		Laboratory Test Code	CA1AG	Cancer Antigen 1	A measurement of the cancer antigen 1 in a biological specimen.	Cancer Antigen 1 Measurement
C172526	C65047		Laboratory Test Code	CA242AG	Cancer Antigen 242; Carbohydrate Antigen 242	A measurement of the cancer antigen 242 in a biological specimen.	Cancer Antigen 242 Measurement
C111143	C65047		Laboratory Test Code	CA2729AG	Cancer Antigen 27-29	A measurement of the cancer antigen 27-29 in a biological specimen.	Cancer Antigen 27-29 Measurement
C187794	C65047		Laboratory Test Code	CA50AG	CA50; Cancer Antigen 50; Carbohydrate Antigen 50	A measurement of the cancer antigen 50 in a biological specimen.	Cancer Antigen 50 Measurement
C106505	C65047		Laboratory Test Code	CA72_4AG	CA 72-4; Cancer Antigen 72-4; Carbohydrate Antigen 72-4	A measurement of the cancer antigen 72-4 in a biological specimen.	Cancer Antigen 72-4 Measurement
C74702	C65047		Laboratory Test Code	CABOT	Cabot Rings	A measurement of the Cabot rings (red-purple staining, threadlike, ring or figure 8 shaped filaments in an erythrocyte) in a biological specimen.	Cabot Ring Count
C96589	C65047		Laboratory Test Code	CACLR	Calcium Clearance	A measurement of the volume of serum or plasma that would be cleared of calcium by excretion of urine for a specified unit of time (e.g. one minute).	Calcium Clearance Measurement
C119272	C65047		Laboratory Test Code	CACR	Calcium Corrected	A measurement of calcium, which has been corrected using an unspecified protein, in a biological specimen.	Calcium Corrected Measurement
C154753	C65047		Laboratory Test Code	CACRALB	Calcium Corrected for Albumin	A measurement of calcium, which has been corrected for albumin, in a biological specimen.	Albumin Corrected Calcium Measurement
C79439	C65047		Laboratory Test Code	CACREAT	Calcium/Creatinine	A relative measurement (ratio or percentage) of the calcium to creatinine in a biological specimen.	Calcium to Creatinine Ratio Measurement
C147314	C65047		Laboratory Test Code	CACRTP	Calcium Corrected for Total Protein	A measurement of calcium, which has been corrected for total protein, in a biological specimen.	Calcium Corrected for Total Protein Measurement
C204647	C65047		Laboratory Test Code	CADMIUM	Cadmium	A measurement of the cadmium in a specimen.	Cadmium Measurement
C187826	C65047		Laboratory Test Code	CADPRH1	ADP-Ribosyl Cyclase 1; ADP-Ribosyl Cyclase/Cyclic ADP-Ribose Hydrolase 1; ADPRC1; cADPr Hydrolase 1; Cyclic ADP Ribose Hydrolase; Cyclic ADP Ribose Hydrolase 1; Soluble CD38	A measurement of the cyclic ADP ribose hydrolase 1 protein in a biological specimen.	Cyclic ADP Ribose Hydrolase 1 Measurement
C150815	C65047		Laboratory Test Code	CAEXR	Calcium Excretion Rate	A measurement of the amount of calcium being excreted in a biological specimen over a defined period of time (e.g. one hour).	Calcium Excretion Rate
C75346	C65047		Laboratory Test Code	CAFFEINE	Caffeine	A measurement of the caffeine in a biological specimen.	Caffeine Measurement
C81948	C65047		Laboratory Test Code	CAION	Calcium, Ionized	A measurement of the ionized calcium in a biological specimen.	Ionized Calcium Measurement
C125941	C65047		Laboratory Test Code	CAIONPH	Calcium, Ionized pH Adjusted	A measurement of the pH adjusted ionized calcium in a biological specimen.	Ionized pH Adjusted Calcium Measurement
C125942	C65047		Laboratory Test Code	CALB	Calbindin	A measurement of the total calbindin in a biological specimen.	Calbindin Measurement
C82005	C65047		Laboratory Test Code	CALPRO	Calprotectin	A measurement of the calprotectin in a biological specimen.	Calprotectin Measurement
C124339	C65047		Laboratory Test Code	CAMP	Cyclic Adenosine 3,5-Monophosphate	A measurement of cyclic adenosine 3,5-monophosphate in a biological specimen.	Cyclic Adenosine 3,5-Monophosphate Measurement
C186030	C65047		Laboratory Test Code	CAMPCRT	Cyclic Adenosine 3,5-Monophosphate/Creatinine; Cyclic Adenosine Monophosphate/Creat; Cyclic Adenosine Monophosphate/Creatinine	A relative measurement (ratio) of the cyclic adenosine 3,5-monophosphate to creatinine in a biological specimen.	Cyclic Adenosine 3,5 Monophosphate to Creatinine Ratio Measurement
C176310	C65047		Laboratory Test Code	CAN	Coefficient of Nitrogen Absorption	A measurement of the coefficient of nitrogen absorption in a biological specimen.	Coefficient of Nitrogen Absorption Measurement
C74689	C65047		Laboratory Test Code	CANNAB	Cannabinoids	A measurement of any cannabinoid class drug present in a biological specimen.	Cannabinoid Drug Class Measurement
C165946	C65047		Laboratory Test Code	CANNABM	Cannabinoid Metabolites; Cannabis Metabolites; Marijuana Metabolites	A measurement of any cannabinoid drug class metabolite(s) present in a biological specimen.	Cannabinoid Metabolite Measurement
C135402	C65047		Laboratory Test Code	CANNABS	Cannabinoids, Synthetic	A measurement of any synthetic cannabinoid class drug present in a biological specimen.	Synthetic Cannabinoid Measurement
C187793	C65047		Laboratory Test Code	CAOXAEXR	Calcium Oxalate Excretion Rate	A measurement of the amount of calcium oxalate being excreted in a biological specimen over a defined amount of time (e.g. one hour).	Calcium Oxalate Excretion Rate
C139087	C65047		Laboratory Test Code	CAPHOS	Calcium/Phosphate; Calcium/Phosphorus	A relative measurement (ratio) of the calcium to phosphorus in a biological specimen.	Calcium to Phosphorus Ratio Measurement
C103360	C65047		Laboratory Test Code	CAPHOSPD	Calcium - Phosphorus Product	A measurement of the product of the calcium and phosphate measurements in a biological specimen.	Calcium and Phosphorus Product Measurement
C96591	C65047		Laboratory Test Code	CARBXHGB	Carboxyhemoglobin	A measurement of the carboxyhemoglobin, carbon monoxide-bound hemoglobin, in a biological specimen.	Carboxyhemoglobin Measurement
C177975	C65047		Laboratory Test Code	CARIPRZN	Cariprazine	A measurement of the cariprazine in a biological specimen.	Cariprazine Measurement
C74682	C65047		Laboratory Test Code	CARNIT	Carnitine	A measurement of the total carnitine in a biological specimen.	Total Carnitine Measurement
C92288	C65047		Laboratory Test Code	CARNITAT	Carnitine Acetyl Transferase	A measurement of the carnitine acetyl transferase in a biological specimen.	Carnitine Acetyl Transferase Measurement
C74677	C65047		Laboratory Test Code	CARNITF	Carnitine, Free	A measurement of the free carnitine in a biological specimen.	Free Carnitine Measurement
C163424	C65047		Laboratory Test Code	CARNTEXR	Carnitine Excretion Rate	A measurement of the amount of carnitine being excreted in a biological specimen over a defined amount of time (e.g. one hour).	Carnitine Excretion Rate
C142273	C65047		Laboratory Test Code	CARTP	CART; Cocaine Amphetamine-Reg Transcript Prot; Cocaine and Amphetamine-Regulated Transcript Protein	A measurement of the cocaine and amphetamine-regulated transcript protein in a biological specimen.	Cocaine Amphetamine-Regulated Transcript Protein Measurement
C198282	C65047		Laboratory Test Code	CASEIN	Casein	A measurement of the casein in a biological specimen.	Casein Measurement
C213922	C65047		Laboratory Test Code	CASTS	Casts; Casts Absent Indicator	An indication that casts were looked for and not found in a biological specimen.	Cast Absent Indicator
C96590	C65047		Laboratory Test Code	CASULPH	Calcium Sulphate	A measurement of the calcium sulphate in a biological specimen.	Calcium Sulphate Measurement
C184534	C65047		Laboratory Test Code	CATHNON	Cathinone	A measurement of the cathinone in a biological specimen.	Cathinone Measurement
C103357	C65047		Laboratory Test Code	CATNINB	Beta Catenin	A measurement of the beta catenin in a biological specimen.	Beta Catenin Measurement
C135403	C65047		Laboratory Test Code	CBA	Ba Fragment of Complement Factor B; Ba Fragment of Factor B; Complement Ba	A measurement of the Ba fragment of complement factor B in a biological specimen.	Complement Ba Measurement
C172510	C65047		Laboratory Test Code	CBANH9	CA9; CAIX; Carbonic Anhydrase 9	A measurement of the carbonic anhydrase 9 in a biological specimen.	Carbonic Anhydrase 9 Measurement
C80172	C65047		Laboratory Test Code	CBB	Bb Fragment of Complement Factor B; Bb Fragment of Factor B; Complement Bb	A measurement of the Bb fragment of complement factor B in a biological specimen.	Complement Bb Measurement
C172520	C65047		Laboratory Test Code	CBS	Cystathionine Beta-Synthase	A measurement of the cystathionine beta-synthase in a biological specimen.	Cystathionine Beta-Synthase Measurement
C74850	C65047		Laboratory Test Code	CCK	Cholecystokinin; Pancreozymin	A measurement of the cholecystokinin hormone in a biological specimen.	Cholecystokinin Measurement
C199894	C65047		Laboratory Test Code	CCL1	Chemokine (C-C Motif) Ligand 1; I-309; SCYA1; Small Inducible Cytokine A1; T Lymphocyte-Secreted Protein I-309	A measurement of the CCL1, chemokine (C-C motif) ligand 1, in a biological specimen.	Chemokine (C-C Motif) Ligand 1 Measurement
C130156	C65047		Laboratory Test Code	CCL12	Chemokine (C-C Motif) Ligand 12; Monocyte Chemotactic Protein 5	A measurement of the CCL12, chemokine (C-C motif) ligand 12, in a biological specimen.	Chemokine (C-C Motif) Ligand 12 Measurement
C165947	C65047		Laboratory Test Code	CCL13	C-C Motif Chemokine Ligand 13; Chemokine (C-C Motif) Ligand 13; CKb10; MCP-4; NCC1; SCYA13; SCYL1	A measurement of the CCL13, chemokine (C-C motif) ligand 13, in a biological specimen.	Chemokine (C-C Motif) Ligand 13 Measurement
C199914	C65047		Laboratory Test Code	CCL15	Chemokine (C-C Motif) Ligand 15; Leukotactin 1; Macrophage inflammatory protein-5; MIP-1 Delta; MIP1D; MIP5	A measurement of the CCL15, chemokine (C-C motif) ligand 15, in a biological specimen.	Chemokine (C-C Motif) Ligand 15 Measurement
C165948	C65047		Laboratory Test Code	CCL16	Chemokine (C-C Motif) Ligand 16; Chemokine CC-4; CKb12; HCC-4; ILINCK; LCC-1; LEC; LMC; Mtn-1; NCC4; SCYA16; SCYL4	A measurement of the CCL16, chemokine (C-C motif) ligand 16, in a biological specimen.	Chemokine (C-C Motif) Ligand 16 Measurement
C112236	C65047		Laboratory Test Code	CCL17	ABCD-2; Chemokine (C-C Motif) Ligand 17; SCYA17; TARC; Thymus and Activation Regulated Chemokine	A measurement of the CCL17, chemokine (C-C motif) ligand 17, in a biological specimen.	Chemokine (C-C Motif) Ligand 17 Measurement
C112237	C65047		Laboratory Test Code	CCL18	AMAC-1; AMAC1; Chemokine (C-C Motif) Ligand 18; CKB7; DC-CK1; DCCK1; Macrophage inflammatory protein-4; MIP4; PARC; Pulmonary and Activation-Regulated Chemokine; SCYA18	A measurement of the CCL18, chemokine (C-C motif) ligand 18, in a biological specimen.	Chemokine (C-C Motif) Ligand 18 Measurement
C130157	C65047		Laboratory Test Code	CCL19	Chemokine (C-C Motif) Ligand 19; Macrophage Inflammatory Protein 3 Beta; MIP3B	A measurement of the CCL19, chemokine (C-C motif) ligand 19, in a biological specimen.	Chemokine (C-C Motif) Ligand 19 Measurement
C161362	C65047		Laboratory Test Code	CCL20	CCL20; Chemokine (C-C Motif) Ligand 20; LARC; Liver Activation Regulated Chemokine; Macrophage Inflammatory Protein-3 Alpha; MIP3A	A measurement of the chemokine (C-C motif) ligand 20 in a biological specimen.	Chemokine (C-C Motif) Ligand 20 Measurement
C147315	C65047		Laboratory Test Code	CCL21	6Ckine; Chemokine (C-C Motif) Ligand 21; Secondary Lymphoid Tissue Chemokine	A measurement of the CCL21, chemokine (C-C motif) ligand 21, in a biological specimen.	Chemokine (C-C Motif) Ligand 21 Measurement
C165949	C65047		Laboratory Test Code	CCL23	Chemokine (C-C Motif) Ligand 23; CK-BETA-8; Ckb-8-1; CKb8; Hmrp-2a; MIP3; MPIF-1; SCYA23	A measurement of the CCL23, chemokine (C-C motif) ligand 23, in a biological specimen.	Chemokine (C-C Motif) Ligand 23 Measurement
C165950	C65047		Laboratory Test Code	CCL25	Chemokine (C-C Motif) Ligand 25; Ckb15; SCYA25; TECK	A measurement of the CCL25, chemokine (C-C motif) ligand 25, in a biological specimen.	Chemokine (C-C Motif) Ligand 25 Measurement
C156520	C65047		Laboratory Test Code	CCL2EXR	Chemokine (C-C Motif) Ligand 2 Excr Rate; Chemokine (C-C Motif) Ligand 2 Excretion Rate; MCP1 Excretion Rate	A measurement of the amount of chemokine (C-C Motif) ligand 2 being excreted in a biological specimen over a defined period of time (e.g. one hour).	Chemokine (C-C Motif) Ligand 2 Excretion Rate
C130158	C65047		Laboratory Test Code	CCL7	Chemokine (C-C Motif) Ligand 7; MCP3; Monocyte Chemotactic Protein 3	A measurement of the CCL7, chemokine (C-C motif) ligand 7, in a biological specimen.	Chemokine (C-C Motif) Ligand 7 Measurement
C165951	C65047		Laboratory Test Code	CCL8	Chemokine (C-C Motif) Ligand 8; HC14; MCP2; SCYA10; SCYA8	A measurement of the CCL8, chemokine (C-C motif) ligand 8, in a biological specimen.	Chemokine (C-C Motif) Ligand 8 Measurement
C122103	C65047		Laboratory Test Code	CCR5	C-C Chemokine Receptor Type 5; Soluble CD195	A measurement of the CCR5, chemokine (C-C motif) receptor type 5, in a biological specimen.	C-C Chemokine Receptor Type 5 Measurement
C225597	C65047		Laboratory Test Code	CD14S	CD14 Antigen; CD14 Molecule; Monocyte Differentiation Antigen CD14; My23 Antigen; Myeloid Cell-Specific LEU-Rich Glycoprot; Myeloid Cell-Specific Leucine-Rich Glycoprotein; SCD14; Soluble CD14	A measurement of the myeloid cell-specific leucine-rich glycoprotein in a biological specimen.	Myeloid Cell-Specific Leucine-Rich Glycoprotein Measurement
C202433	C65047		Laboratory Test Code	CD28TGP	CD8; CD8 Complex; T-Cell Surface Glycoprotein CD8	A measurement of the T-cell surface glycoprotein CD8 in a biological specimen.	T-Cell Surface Glycoprotein CD8 Measurement
C172498	C65047		Laboratory Test Code	CDCA	Chenic Acid; Chenocholic Acid; Chenodeoxycholate; Chenodeoxycholic Acid	A measurement of the chenodeoxycholate in a biological specimen.	Chenodeoxycholate Measurement
C176239	C65047		Laboratory Test Code	CDCACM	Chenodeoxycholate Compounds; Chenodeoxycholic Acid Compounds	A measurement of the chenodeoxycholic acid, glycochenodeoxycholic acid, and taurochenodeoxycholic acid in a biological specimen.	Chenodeoxycholate Compounds Measurement
C199915	C65047		Laboratory Test Code	CDH1	Cadherin 1; Cadherin-1; E-Cadherin; Soluble CD324	A measurement of the cadherin 1 in a biological specimen.	Cadherin 1 Measurement
C101016	C65047		Laboratory Test Code	CDT	Carbohydrate-Deficient Transferrin	A measurement of transferrin with a reduced number of carbohydrate moieties in a biological specimen.	Carbohydrate-Deficient Transferrin Measurement
C125943	C65047		Laboratory Test Code	CDTTFRN	Carb-Deficient Transferrin/Transferrin	A relative measurement (ratio or percentage) of the carbohydrate-deficient transferrin to total transferrin in a biological specimen.	Carbohydrate-Deficient Transferrin to Transferrin Ratio Measurement
C81983	C65047		Laboratory Test Code	CEA	Carcinoembryonic Antigen	A measurement of the carcinoembryonic antigen in a biological specimen.	Carcinoembryonic Antigen Measurement
C172511	C65047		Laboratory Test Code	CEACAM1	BGP; Biliary Glycoprotein; Carcinoembryonic Antigen Cell Adhesion Molecule 1; CEA Cell Adhesion Molecule 1; CEA Related Cell Adhesion Molecule 1; Soluble CD66a	A measurement of the carcinoembryonic antigen (CEA) cell adhesion molecule 1 in a biological specimen.	CEA Cell Adhesion Molecule 1 Measurement
C191212	C65047		Laboratory Test Code	CEACAM5	Carcinoembryonic Antigen-Related Cell Adhesion Molecule 5; CEA Cell Adhesion Molecule 5; Soluble CD66e	A measurement of the carcinoembryonic antigen (CEA) cell adhesion molecule 5 in a biological specimen.	CEA Cell Adhesion Molecule 5 Measurement
C191290	C65047		Laboratory Test Code	CEACAM5S	Soluble Carcinoembryonic Antigen-Related Cell Adhesion Molecule 5; Soluble CD66e; Soluble CEA Cell Adhesion Molecule 5	A measurement of the soluble carcinoembryonic antigen (CEA) cell adhesion molecule 5 in a biological specimen.	Soluble CEA Cell Adhesion Molecule 5 Measurement
C96592	C65047		Laboratory Test Code	CEC	Circulating Endothelial Cells	A measurement of the circulating endothelial cells in a biological specimen.	Circulating Endothelial Cell Count
C111234	C65047		Laboratory Test Code	CEIMCE	Immature Cells/Total Cells	A relative measurement (ratio or percentage) of the immature hematopoietic cells to total cells in a biological specimen.	Immature Cell to Total Cell Ratio Measurement
C48938	C65047		Laboratory Test Code	CELLS	Cells; Total Cells	A measurement of the total nucleated cells in a biological specimen.	Cell Count
C96672	C65047		Laboratory Test Code	CELLSIM	Immature Cells	A measurement of the total immature cells in a blood specimen.	Immature Cell Count
C111153	C65047		Laboratory Test Code	CELLULAR	Cellularity; Cellularity Grade	A measurement of the degree, quality or condition of cells in a biological specimen.	Cellularity Measurement
C184342	C65047		Laboratory Test Code	CEMORPH	Cell Morphology	An examination or assessment of the form and structure of cells.	Cell Morphology Assessment
C120632	C65047		Laboratory Test Code	CETP	Cholesteryl Ester Transfer Protein	A measurement of the cholesteryl ester transfer protein in a biological specimen.	Cholesteryl Ester Transfer Protein Measurement
C103380	C65047		Laboratory Test Code	CETPA	Cholesteryl Ester Transfer Protein Act	A measurement of the biological activity of cholesteryl ester transfer protein in a biological specimen.	Cholesteryl Ester Transfer Protein Activity Measurement
C176311	C65047		Laboratory Test Code	CFA	Coefficient of Fat Absorption	A measurement of the coefficient of fat absorption in a biological specimen.	Coefficient of Fat Absorption Measurement
C199918	C65047		Laboratory Test Code	CFH	Beta-1-H-Globulin; Complement Factor H; Factor H; H Factor 1	A measurement of the complement factor H in a biological specimen.	Complement Factor H Measurement
C199919	C65047		Laboratory Test Code	CFHR1	Complement Factor H Related 1; Complement Factor H-Related Protein 1; FHL-1; FHR-1; H Factor-Like Protein 1; H-Factor-Like 1	A measurement of the complement factor H-related Protein 1 in a biological specimen.	Complement Factor H-Related Protein 1 Measurement
C122108	C65047		Laboratory Test Code	CGA	Chromogranin A	A measurement of the chromogranin A in a biological specimen.	Chromogranin A Measurement
C161374	C65047		Laboratory Test Code	CGADJMW	Choriogonadotropin Adj for Maternal Wt; Choriogonadotropin Adjusted for Maternal Weight	A measurement of choriogonadotropin, which has been adjusted for maternal body weight, in a biological specimen.	Choriogonadotropin Adjusted for Maternal Weight Measurement
C111165	C65047		Laboratory Test Code	CGMP	Cyclic Guanosine Monophosphate	A measurement of the cyclic guanosine 3,5-monophosphate in a biological specimen.	Cyclic Guanosine Monophosphate Measurement
C147317	C65047		Laboratory Test Code	CH100	CH100; Complement CH100; Total Hemolytic Complement CH100	A measurement of the complement required to lyse 100 percent of red blood cells in a biological specimen.	Complement CH100 Measurement
C100423	C65047		Laboratory Test Code	CH50	CH50; Complement CH50; Total Hemolytic Complement CH50	A measurement of the complement required to lyse 50 percent of red blood cells in a biological specimen.	CH50 Measurement
C139067	C65047		Laboratory Test Code	CHCM	Corpuscular HGB Concentration Mean	A direct measurement of the concentration of hemoglobin within individual erythrocytes in a biological specimen, reported as a mean.	Corpuscular Hemoglobin Concentration Mean
C138970	C65047		Laboratory Test Code	CHCMR	Ret. Corpuscular HGB Concentration Mean; Reticulocyte Corpuscular Hemoglobin Concentration Mean	An indirect measurement of the average concentration of hemoglobin per reticulocyte in a biological specimen, calculated as the ratio of hemoglobin to hematocrit.	Reticulocyte Corpuscular Hemoglobin Concentration Mean
C139066	C65047		Laboratory Test Code	CHCNT	Cellular Hemoglobin Content; CH; Corpuscular Hemoglobin Content	A measurement of the mean erythrocyte hemoglobin content within an individual erythrocyte, calculated as the product of cell volume and cell hemoglobin concentration.	Corpuscular Hemoglobin Content
C181430	C65047		Laboratory Test Code	CHDH7A25	7alpha,25-Dihydroxycholesterol	A measurement of the 7alpha,25-dihydroxycholesterol in a biological specimen.	7alpha,25-Dihydroxycholesterol Measurement
C181431	C65047		Laboratory Test Code	CHDH7A27	7alpha,27-Dihydroxycholesterol	A measurement of the 7alpha,27-dihydroxycholesterol in a biological specimen.	7alpha,27-Dihydroxycholesterol Measurement
C139068	C65047		Laboratory Test Code	CHDW	Corpuscular Hemoglobin Concentration Distribution Width; Corpuscular HGB Conc Distribution Width	A measurement of the standard deviation of hemoglobin concentrations in erythrocytes in a biological specimen, calculated as the standard deviation of hemoglobin content divided by the mean hemoglobin content.	Corpuscular Hemoglobin Concentration Distribution Width
C139069	C65047		Laboratory Test Code	CHDWR	Ret Corpuscular HGB Conc Distr Width; Reticulocyte Corpuscular Hemoglobin Distribution Width	A measurement of the standard deviation of hemoglobin concentrations in reticulocytes in a biological specimen, calculated as the standard deviation of hemoglobin content divided by the mean hemoglobin content.	Reticulocyte Corpuscular Hemoglobin Distribution Width
C181423	C65047		Laboratory Test Code	CHE24S25	24(S),25-Epoxycholesterol	A measurement of the 24(S),25-epoxycholesterol in a biological specimen.	24(S),25-Epoxycholesterol Measurement
C187795	C65047		Laboratory Test Code	CHITTDS	Chitinase 1; Chitotriosidase; Chitotriosidase-1	A measurement of the chitotriosidase-1 in a biological specimen.	Chitotriosidase-1 Measurement
C120633	C65047		Laboratory Test Code	CHLMCRN	Chylomicrons	A measurement of the chylomicrons in a biological specimen.	Chylomicrons Measurement
C174302	C65047		Laboratory Test Code	CHLMCRNT	Chylomicron Triglyceride	A measurement of the chylomicron triglyceride in a biological specimen.	Chylomicron Triglyceride Measurement
C184612	C65047		Laboratory Test Code	CHLRHDRT	Chloral Hydrate; Mickey Finn; Trichloroacetaldehyde Monohydrate	A measurement of the chloral hydrate in a biological specimen.	Chloral Hydrate Measurement
C177968	C65047		Laboratory Test Code	CHLRPMZN	Chlorpromazine	A measurement of the chlorpromazine in a biological specimen.	Chlorpromazine Measurement
C105586	C65047		Laboratory Test Code	CHOL	Cholesterol; Total Cholesterol	A measurement of the cholesterol in a biological specimen.	Cholesterol Measurement
C172499	C65047		Laboratory Test Code	CHOLATE	Cholate; Cholic Acid	A measurement of the cholate in a biological specimen.	Cholate Measurement
C176232	C65047		Laboratory Test Code	CHOLCM	Cholate Compounds; Cholic Acid Compounds	A measurement of the cholic acid, glycocholic acid, hyocholic acid, and taurocholic acid in a biological specimen.	Cholate Compounds Measurement
C225598	C65047		Laboratory Test Code	CHOLESTR	Cholesteryl Esters	A measurement of the cholesteryl esters in a biological specimen.	Cholesteryl Ester Measurement
C181420	C65047		Laboratory Test Code	CHOLH20S	20(S)-Hydroxycholesterol; 20-Alpha-Hydroxycholesterol	A measurement of the 20(S)-hydroxycholesterol in a biological specimen.	20(S)-Hydroxycholesterol Measurement
C181421	C65047		Laboratory Test Code	CHOLH22R	22(R)-Hydroxycholesterol	A measurement of the 22(R)-hydroxycholesterol in a biological specimen.	22(R)-Hydroxycholesterol Measurement
C181422	C65047		Laboratory Test Code	CHOLH22S	22(S)-Hydroxycholesterol	A measurement of the 22(S)-hydroxycholesterol in a biological specimen.	22(S)-Hydroxycholesterol Measurement
C181424	C65047		Laboratory Test Code	CHOLH24R	24(R)-Hydroxycholesterol	A measurement of the 24(R)-hydroxycholesterol in a biological specimen.	24(R)-Hydroxycholesterol Measurement
C181425	C65047		Laboratory Test Code	CHOLH24S	24(S)-Hydroxycholesterol	A measurement of the 24(S)-hydroxycholesterol in a biological specimen.	24(S)-Hydroxycholesterol Measurement
C181426	C65047		Laboratory Test Code	CHOLH25	25-Hydroxycholesterol	A measurement of the 25-hydroxycholesterol in a biological specimen.	25-Hydroxycholesterol Measurement
C181427	C65047		Laboratory Test Code	CHOLH27	27-Hydroxycholesterol	A measurement of the 27-hydroxycholesterol in a biological specimen.	27-Hydroxycholesterol Measurement
C181432	C65047		Laboratory Test Code	CHOLH7A	7alpha-Hydroxycholesterol	A measurement of the 7alpha-hydroxycholesterol in a biological specimen.	7alpha-Hydroxycholesterol Measurement
C181433	C65047		Laboratory Test Code	CHOLH7B	7beta-Hydroxycholesterol	A measurement of the 7beta-hydroxycholesterol in a biological specimen.	7beta-Hydroxycholesterol Measurement
C80171	C65047		Laboratory Test Code	CHOLHDL	Cholesterol/HDL-Cholesterol	A relative measurement (ratio or percentage) of total cholesterol to high-density lipoprotein cholesterol (HDL-C) in a biological specimen.	Cholesterol to HDL-Cholesterol Ratio Measurement
C92289	C65047		Laboratory Test Code	CHOLINES	Cholinesterase	A measurement of the cholinesterase in a biological specimen.	Cholinesterase Measurement
C181434	C65047		Laboratory Test Code	CHOLK7	7-Ketocholesterol; 7-Oxocholesterol	A measurement of the 7-ketocholesterol in a biological specimen.	7-Ketocholesterol Measurement
C156514	C65047		Laboratory Test Code	CHOLOH4B	4-Beta-Hydroxycholesterol	A measurement of the 4-beta-hydroxycholesterol in a biological specimen.	4-Beta-Hydroxycholesterol Measurement
C181435	C65047		Laboratory Test Code	CHOLSTNL	5alpha-Cholestanol; Beta-Cholestanol; Cholestanol; Dehydrocholesterol; Zymostanol	A measurement of the cholestanol in a biological specimen.	Cholestanol Measurement
C181436	C65047		Laboratory Test Code	CHOLSULF	Cholesterol Sulfate	A measurement of the cholesterol sulfate in a biological specimen.	Cholesterol Sulfate Measurement
C111159	C65047		Laboratory Test Code	CHYTRYP	Chymotrypsin	A measurement of the total chymotrypsin in a biological specimen.	Chymotrypsin Measurement
C127611	C65047		Laboratory Test Code	CIC	Circulating Immune Complexes	A measurement of the circulating immune complexes in a biological specimen.	Circulating Immune Complex Measurement
C122109	C65047		Laboratory Test Code	CIT	Citrulline	A measurement of the citrulline in a biological specimen.	Citrulline Measurement
C122110	C65047		Laboratory Test Code	CITCREAT	Citrate/Creatinine; Citric Acid/Creatinine	A relative measurement (ratio or percentage) of the citrate to creatinine in a biological specimen.	Citrate to Creatinine Ratio Measurement
C92248	C65047		Laboratory Test Code	CITRATE	Citrate; Citric Acid	A measurement of the citrate in a biological specimen.	Citrate Measurement
C163425	C65047		Laboratory Test Code	CITRTEXR	Citrate Excretion Rate	A measurement of the amount of citrate being excreted in a biological specimen over a defined amount of time (e.g. one hour).	Citrate Excretion Rate
C64489	C65047		Laboratory Test Code	CK	CPK; Creatine Kinase; Creatine Phosphokinase	A measurement of the total creatine kinase in a biological specimen.	Creatine Kinase Measurement
C64490	C65047		Laboratory Test Code	CKBB	Creatine Kinase BB	A measurement of the homozygous B-type creatine kinase in a biological specimen.	Creatine Kinase BB Measurement
C79466	C65047		Laboratory Test Code	CKBBCK	Creatine Kinase BB/Total Creatine Kinase	A relative measurement (ratio or percentage) of the BB-type creatine kinase to total creatine kinase in a biological specimen.	Creatine Kinase BB to Total Creatine Kinase Ratio Measurement
C64491	C65047		Laboratory Test Code	CKMB	Creatine Kinase MB	A measurement of the heterozygous MB-type creatine kinase in a biological specimen.	Creatine Kinase MB Measurement
C79441	C65047		Laboratory Test Code	CKMBCK	Creatine Kinase MB/Total Creatine Kinase	A relative measurement (ratio or percentage) of the MB-type creatine kinase to total creatine kinase in a biological specimen.	Creatine Kinase MB to Total Creatine Kinase Ratio Measurement
C64494	C65047		Laboratory Test Code	CKMM	Creatine Kinase MM	A measurement of the homozygous M-type creatine kinase in a biological specimen.	Creatine Kinase MM Measurement
C79442	C65047		Laboratory Test Code	CKMMCK	Creatine Kinase MM/Total Creatine Kinase	A relative measurement (ratio or percentage) of the MM-type creatine kinase to total creatine kinase in a biological specimen.	Creatine Kinase MM to Total Creatine Kinase Ratio Measurement
C147319	C65047		Laboratory Test Code	CKMT1CK	CK, Macromolecular Type 1/Total CK; Creatine Kinase, Macromolecular Type 1/Total Creatine Kinase	A relative measurement (ratio or percentage) of the macromolecular type 1 creatine kinase to total creatine kinase in a biological specimen.	Macromolecular Type 1 Creatine Kinase to Total Creatine Kinase Ratio Measurement
C147320	C65047		Laboratory Test Code	CKMT2CK	CK, Macromolecular Type 2/Total CK; Creatine Kinase, Macromolecular Type 2/Total Creatine Kinase	A relative measurement (ratio or percentage) of the macromolecular type 2 creatine kinase to total creatine kinase in a biological specimen.	Macromolecular Type 2 Creatine Kinase to Total Creatine Kinase Ratio Measurement
C64495	C65047		Laboratory Test Code	CL	Chloride	A measurement of the chloride in a biological specimen.	Chloride Measurement
C96594	C65047		Laboratory Test Code	CLARITY	Clarity	A measurement of the transparency of a biological specimen.	Clarity Measurement
C106509	C65047		Laboratory Test Code	CLCLR	Chloride Clearance	A measurement of the volume of serum or plasma that would be cleared of chloride by excretion of urine for a specified unit of time (e.g. one minute).	Chloride Clearance Measurement
C79440	C65047		Laboratory Test Code	CLCREAT	Chloride/Creatinine	A relative measurement (ratio or percentage) of the chloride to creatinine in a biological specimen.	Chloride to Creatinine Ratio Measurement
C74848	C65047		Laboratory Test Code	CLCTONN	Calcitonin	A measurement of the calcitonin hormone in a biological specimen.	Calcitonin Measurement
C74849	C65047		Laboratory Test Code	CLCTRIOL	Calcitriol	A measurement of the calcitriol hormone in a biological specimen.	Calcitriol Measurement
C135405	C65047		Laboratory Test Code	CLEPNSQE	Columnar Epi Cells/Non-Squam Epi Cells	A relative measurement (ratio or percentage) of the columnar epithelial cells to non-squamous epithelial cells in a biological specimen.	Columnar Epithelial Cells to Non-Squamous Epithelial Cells Ratio Measurement
C150816	C65047		Laboratory Test Code	CLEXR	Chloride Excretion Rate	A measurement of the amount of chloride being excreted in a biological specimen over a defined period of time (e.g. one hour).	Chloride Excretion Rate
C139082	C65047		Laboratory Test Code	CLNZPM	Clonazepam	A measurement of the clonazepam present in a biological specimen.	Clonazepam Measurement
C184613	C65047		Laboratory Test Code	CLOBAZAM	Clobazam; cloBAZam	A measurement of the clobazam in a biological specimen.	Clobazam Measurement
C184581	C65047		Laboratory Test Code	CLOSTBL	Clostebol	A measurement of the clostebol in a biological specimen.	Clostebol Measurement
C214694	C65047		Laboratory Test Code	CLOTFAA	Alpha Angle; Alpha-Angle; Clot Formation Alpha Angle	A measurement of the angle of incline (tangent at 20mm and the midline) during the rising phase of the thromboelastogram curve, during the clot formation process.	Clot Formation Alpha Angle Measurement
C214688	C65047		Laboratory Test Code	CLOTFM	Clot Amplitude; Clot Firmness	A measurement of the firmness of a clot.	Clot Firmness Measurement
C214691	C65047		Laboratory Test Code	CLOTFMMX	Maximum Clot Amplitude; Maximum Clot Firmness	A measurement of the maximum firmness of a clot.	Maximum Clot Firmness Measurement
C214689	C65047		Laboratory Test Code	CLOTFTIM	CFT; Clot Formation Time	A measurement of the elapsed time from the start of clot formation to the point at which the clot reaches a firmness of 20mm.	Clot Formation Time Measurement
C214690	C65047		Laboratory Test Code	CLOTITIM	Clot Initiation Time; Clotting Time; CT	A measurement of the elapsed time from the addition of the clot activating agent to the start of clot formation.	Clot Initiation Time Measurement
C214692	C65047		Laboratory Test Code	CLOTLYIX	Clot LI; Clot Lysis Index	A relative measurement (percentage) of remaining clot stability in relation to the maximum clot firmness value at some time point after clot initiation time.	Clot Lysis Index
C214693	C65047		Laboratory Test Code	CLOTLYMX	Maximum Clot Lysis; Maximum Lysis	A relative measurement (percentage) of the decrease in amplitude of the waveform at rotational thromboelastometry test completion.	Maximum Clot Lysis Measurement
C181438	C65047		Laboratory Test Code	CLOTRTC	Clot Retraction; Clot Retraction, Qualitative	A qualitative assessment of clot retraction in a biological specimen.	Qualitative Clot Retraction Measurement
C181437	C65047		Laboratory Test Code	CLOTRTCT	Clot Retraction Time	A measurement of the amount of time it takes for a clot to retract, or pull away from, the wall of a glass collection container.	Clot Retraction Time Measurement
C184580	C65047		Laboratory Test Code	CLPHTRMN	Chlorphentermine	A measurement of the chlorphentermine in a biological specimen.	Chlorphentermine Measurement
C75371	C65047		Laboratory Test Code	CLRDZPXD	Chlordiazepoxide	A measurement of the chlordiazepoxide present in a biological specimen.	Chlordiazepoxide Measurement
C139077	C65047		Laboratory Test Code	CLRZPT	Clorazepate	A measurement of the clorazepate present in a biological specimen.	Clorazepate Measurement
C187805	C65047		Laboratory Test Code	CLT	Clot Lysis Time; ECLT; ELT; Euglobulin Clot Lysis Time; Euglobulin Lysis Time	A measurement of the amount of time it takes for dissolution of a fibrin clot in a biological specimen.	Euglobulin Clot Lysis Time
C102261	C65047		Laboratory Test Code	CLUECE	Clue Cells	A measurement of the clue cells in a biological specimen.	Clue Cell Count
C186031	C65047		Laboratory Test Code	CLZPMAOM	Clonazepam and/or Metabolites	A measurement of the clonazepam and/or its metabolite(s) present in a biological specimen, for an assay that can measure both clonazepam and its metabolites.	Clonazepam and/or Metabolites Measurement
C139084	C65047		Laboratory Test Code	CMONOX	Carbon Monoxide	A measurement of the carbon monoxide in a specimen.	Carbon Monoxide Measurement
C163426	C65047		Laboratory Test Code	CMPK2	Cytidine-Uridine Monophosphate Kinase 2; Cytidine/Uridine Monophosphate Kinase 2	A measurement of the cytidine-uridine monophosphate kinase 2 in a biological specimen.	Cytidine-Uridine Monophosphate Kinase 2 Measurement
C199890	C65047		Laboratory Test Code	CNTF	Ciliary Neurotrophic Factor	A measurement of the ciliary neurotrophic factor in a biological specimen.	Ciliary Neurotrophic Factor Measurement
C64545	C65047		Laboratory Test Code	CO2	Carbon Dioxide	A measurement of the carbon dioxide gas in a biological specimen.	Carbon Dioxide Measurement
C112239	C65047		Laboratory Test Code	COAGIDX	CI; Coagulation Index	A measurement of the efficiency of coagulation of a biological specimen. This is calculated by a mathematical formula that takes into account the R value, K value, angle and maximum amplitude of clot formation.	Coagulation Index Measurement
C172490	C65047		Laboratory Test Code	COCAAOM	Cocaine and/or Metabolites	A measurement of the cocaine and/or its metabolite(s) present in a biological specimen, for an assay that can measure both cocaine and its metabolites.	Cocaine And/Or Metabolites Measurement
C156510	C65047		Laboratory Test Code	COCAETH	Cocaethylene; Cocaine Ethyl	A measurement of the cocaethylene present in a biological specimen.	Cocaethylene Measurement
C74690	C65047		Laboratory Test Code	COCAINE	Cocaine	A measurement of the cocaine present in a biological specimen.	Cocaine Measurement
C172491	C65047		Laboratory Test Code	COCAM	Cocaine Metabolites	A measurement of any cocaine drug class metabolite(s) present in a biological specimen.	Cocaine Metabolites Measurement
C142274	C65047		Laboratory Test Code	COCBNZEC	Cocaine Benzoylecgonine Ecgonine	A measurement of the cocaine, benzoylecgonine, and/or ecgonine in a biological specimen.	Cocaine, Benzoylecgonine, and/or Ecgonine Measurement
C74877	C65047		Laboratory Test Code	CODEINE	Codeine	A measurement of the codeine present in a biological specimen.	Codeine Measurement
C103383	C65047		Laboratory Test Code	COL4	Collagen Type IV	A measurement of the collagen type IV in a biological specimen.	Collagen Type IV Measurement
C64546	C65047		Laboratory Test Code	COLOR	Color	A measurement of the color of a biological specimen.	Color Assessment
C111145	C65047		Laboratory Test Code	COMP	Cartilage Oligomeric Matrix Protein	A measurement of the cartilage oligomeric matrix protein in a biological specimen.	Cartilage Oligomeric Matrix Protein Measurement
C102282	C65047		Laboratory Test Code	CONDUCTU	Urine Conductivity	A measurement of the urine conductivity which is a non-linear function of the electrolyte concentration in the urine.	Urine Conductivity
C95110	C65047		Laboratory Test Code	CONSIST	Consistency	A description about the firmness or make-up of an entity.	Consistency
C127612	C65047		Laboratory Test Code	COPEP	Copeptin	A measurement of the copeptin in a biological specimen.	Copeptin Measurement
C111161	C65047		Laboratory Test Code	COPPER	Copper; Cu	A measurement of copper in a biological specimen.	Copper Measurement
C147321	C65047		Laboratory Test Code	COQ10	Coenzyme Q10; Ubiquinone 10	A measurement of the ubiquinone 10 in a biological specimen.	Ubiquinone 10 Measurement
C106512	C65047		Laboratory Test Code	CORCREAT	Cortisol/Creatinine	A relative measurement (ratio or percentage) of the cortisol to creatinine present in a sample.	Cortisol to Creatinine Ratio Measurement
C88113	C65047		Laboratory Test Code	CORTFR	Cortisol, Free	A measurement of the free, unbound cortisol in a biological specimen.	Free Cortisol Measurement
C74781	C65047		Laboratory Test Code	CORTISOL	Cortisol; Total Cortisol	A measurement of the cortisol in a biological specimen.	Cortisol Measurement
C186032	C65047		Laboratory Test Code	CORTOLA	Alpha Cortol; alpha-Cortol	A measurement of the alpha cortol in a biological specimen.	Alpha Cortol Measurement
C186033	C65047		Laboratory Test Code	CORTOLNA	Alpha Cortolone; alpha-Cortolone	A measurement of the alpha cortolone in a biological specimen.	Alpha Cortolone Measurement
C92249	C65047		Laboratory Test Code	COTININE	Cotinine	A measurement of the cotinine in a biological specimen.	Cotinine Measurement
C209580	C65047		Laboratory Test Code	COTNNFR	Cotinine, Free	A measurement of the free (unbound) cotinine in a specimen.	Free Cotinine Measurement
C221570	C65047		Laboratory Test Code	CPA9HNE	Calprotectin Neo-epitope CPa9-HNE; CPa9-HNE; Human Neutrophil Elastase-Degraded Calprotectin Neo-epitope CPa9-HNE	A measurement of the human neutrophil elastase-degraded calprotectin neo-epitope CPa9-HNE in a biological specimen.	Human Neutrophil Elastase-Degraded Calprotectin Neo-epitope CPa9-HNE Measurement
C165953	C65047		Laboratory Test Code	CPB2	Carboxypeptidase B2; CPU; PCPB; TAFI	A measurement of the carboxypeptidase B2 in a biological specimen.	Carboxypeptidase B2 Measurement
C150837	C65047		Laboratory Test Code	CPEPCRT	C-peptide/Creatinine	A relative measurement (ratio or percentage) of the C-peptide to creatinine in a biological specimen.	C-peptide to Creatinine Ratio Measurement
C187796	C65047		Laboratory Test Code	CPEPEXR	C-Peptide Excretion Rate	A measurement of the amount of C-peptide being excreted in a biological specimen over a defined amount of time (e.g. one hour).	C-Peptide Excretion Rate
C74736	C65047		Laboratory Test Code	CPEPTIDE	C-peptide	A measurement of the C (connecting) peptide of insulin in a biological specimen.	C-peptide Measurement
C147322	C65047		Laboratory Test Code	CRBMZPN	Carbamazepine	A measurement of the carbamazepine in a biological specimen.	Carbamazepine Measurement
C64547	C65047		Laboratory Test Code	CREAT	Creatinine	A measurement of the creatinine in a biological specimen.	Creatinine Measurement
C25747	C65047		Laboratory Test Code	CREATCLR	Creatinine Clearance	A measurement of the volume of serum or plasma that would be cleared of creatinine by excretion of urine for a specified unit of time (e.g. one minute).	Creatinine Clearance
C150817	C65047		Laboratory Test Code	CREATEXR	Creatinine Excretion Rate	A measurement of the amount of creatinine being excreted in a biological specimen over a defined amount of time (e.g. one hour).	Creatinine Excretion Rate
C74703	C65047		Laboratory Test Code	CRENCE	Crenated Cells	A measurement of the crenated cells in a biological specimen.	Crenated Cell Measurement
C74851	C65047		Laboratory Test Code	CRH	Corticotropin Releasing Factor; Corticotropin Releasing Hormone	A measurement of the corticotropin releasing hormone in a biological specimen.	Corticotropin Releasing Hormone Measurement
C100432	C65047		Laboratory Test Code	CRLPLSMN	Caeruloplasmin; Ceruloplasmin	A measurement of ceruloplasmin in a biological specimen.	Ceruloplasmin Measurement
C147323	C65047		Laboratory Test Code	CRNTESTR	Carnitine Esters	A measurement of the total carnitine esters in a biological specimen.	Carnitine Ester Measurement
C204648	C65047		Laboratory Test Code	CROTNALD	Crotonaldehyde	A measurement of the crotonaldehyde in a specimen.	Crotonaldehyde Measurement
C64548	C65047		Laboratory Test Code	CRP	C Reactive Protein	A measurement of the C reactive protein in a biological specimen.	C-Reactive Protein Measurement
C221561	C65047		Laboratory Test Code	CRPM	C-Reactive Protein Metabolite; CRPM	A measurement of the C-reactive protein metabolite, an MMP-generated neoepitope of C-reactive protein (CRP), in a biological specimen.	C-Reactive Protein Metabolite Measurement
C184611	C65047		Laboratory Test Code	CRSPRDL	Carisoprodol	A measurement of the carisoprodol in a biological specimen.	Carisoprodol Measurement
C147324	C65047		Laboratory Test Code	CRTCLRBS	Creatinine Clearance Adjusted for BSA	A measurement of the volume of serum or plasma that would be cleared of creatinine by excretion of urine for a specified unit of time (e.g. one minute), adjusted for body surface area.	Creatinine Clearance Adjusted for BSA
C150847	C65047		Laboratory Test Code	CRTCLRE	Creatinine Clearance, Estimated	An estimate of the volume of serum or plasma that would be cleared of creatinine by excretion of urine for a specified unit of time (e.g. one minute).	Estimated Creatinine Clearance
C106511	C65047		Laboratory Test Code	CRTCREAT	Corticosterone/Creatinine	A relative measurement (ratio or percentage) of the corticosterone to creatinine present in a sample.	Corticosterone to Creatinine Ratio Measurement
C163427	C65047		Laboratory Test Code	CRTFREXR	Cortisol, Free Excretion Rate	A measurement of the amount of free cortisol being excreted in a biological specimen over a defined amount of time (e.g. one hour).	Free Cortisol Excretion Rate
C186034	C65047		Laboratory Test Code	CRTN	Carotene	A measurement of the total carotenes in a biological specimen.	Carotene Measurement
C79434	C65047		Laboratory Test Code	CRTRONE	Corticosterone	A measurement of corticosterone in a biological specimen.	Corticosterone Measurement
C147325	C65047		Laboratory Test Code	CRYGLBSR	Cryoglobulin Volume/Serum Volume	A relative measurement (ratio or percentage) of the volume of cryoglobulin to total serum volume in a biological specimen.	Cryoglobulin Volume to Serum Volume Ratio Measurement
C147326	C65047		Laboratory Test Code	CRYOFBRN	Cryofibrinogen	A measurement of the cryofibrinogen in a biological specimen.	Cryofibrinogen Measurement
C111164	C65047		Laboratory Test Code	CRYOGLBN	Cryoglobulin	A measurement of cryoglobulin in a biological specimen.	Cryoglobulin Measurement
C213923	C65047		Laboratory Test Code	CRYSTALS	Crystals; Crystals Absent Indicator	An indication that crystals were looked for and not found in a biological specimen.	Crystal Absent Indicator
C74762	C65047		Laboratory Test Code	CSBACT	Bacterial Casts	A measurement of the bacterial casts present in a biological specimen.	Bacterial Cast Measurement
C96588	C65047		Laboratory Test Code	CSBROAD	Broad Casts	A measurement of the broad casts in a biological specimen.	Broad Casts Measurement
C74764	C65047		Laboratory Test Code	CSCELL	Cellular Casts	A measurement of the cellular (white blood cell, red blood cell, epithelial and bacterial) casts present in a biological specimen.	Cellular Cast Measurement
C150838	C65047		Laboratory Test Code	CSCYL	Cylindroid Casts; Cylindroid Pseudocasts	A measurement of cylindroid casts (casts with a tapering end) in a biological specimen.	Cylindroid Cast Measurement
C74779	C65047		Laboratory Test Code	CSEPI	Epithelial Casts	A measurement of the epithelial cell casts present in a biological specimen.	Epithelial-Cast Measurement
C112220	C65047		Laboratory Test Code	CSEPI846	846-Epitope; Aggrecan Chondroitin Sulfate Epitope 846; Chondroitin Sulfate Epitope 846; Chondroitin Sulfate Proteoglycan 1 Epitope 846; CS846	A measurement of the 846 epitope present on the chondroitin sulfate chains of aggrecan in a biological specimen.	Aggrecan Chondroitin Sulfate Epitope 846 Measurement
C174229	C65047		Laboratory Test Code	CSEPIR	Renal Epithelial Casts	A measurement of the renal epithelial cell casts in a biological specimen.	Renal Epithelial Casts Measurement
C174292	C65047		Laboratory Test Code	CSEPIRT	Renal Tubular Epithelial Casts	A measurement of the renal tubular epithelial cell casts in a biological specimen.	Renal Tubular Epithelial Casts Measurement
C74766	C65047		Laboratory Test Code	CSFAT	Fatty Casts	A measurement of the fatty casts present in a biological specimen.	Fatty Cast Measurement
C154735	C65047		Laboratory Test Code	CSFIGIDX	CSF IgG Index; CSF Index; IgG Index	A relative measurement (ratio) of the IgG to albumin in cerebrospinal fluid to the IgG to albumin in serum.	IgG Index
C74768	C65047		Laboratory Test Code	CSGRAN	Granular Casts	A measurement of the granular (coarse and fine) casts present in a biological specimen.	Granular Cast Measurement
C74765	C65047		Laboratory Test Code	CSGRANC	Granular Coarse Casts	A measurement of the coarse granular casts present in a biological specimen.	Coarse Granular Cast Measurement
C74769	C65047		Laboratory Test Code	CSGRANF	Granular Fine Casts	A measurement of the fine granular casts present in a biological specimen.	Granular Fine Cast Measurement
C74770	C65047		Laboratory Test Code	CSHYAL	Hyaline Casts	A measurement of the hyaline casts present in a biological specimen.	Hyaline Cast Measurement
C174305	C65047		Laboratory Test Code	CSHYGR	Hyalogranular Casts	A measurement of the hyalogranular casts in a biological specimen.	Hyalogranular Casts
C74771	C65047		Laboratory Test Code	CSMIX	Mixed Casts	A measurement of the mixed (the cast contains a mixture of cell types) casts present in a biological specimen.	Mixed Cast Count
C186035	C65047		Laboratory Test Code	CSPATH	Non-Hyalin Casts; Non-Hyaline Casts; Pathologic Casts	A measurement of the pathologic (non-hyaline) casts present in a biological specimen.	Pathologic Cast Measurement
C189518	C65047		Laboratory Test Code	CSPIG	Pigment Casts; Pigmented Casts	A measurement of the pigment casts present in a biological specimen.	Pigment Cast Measurement
C74772	C65047		Laboratory Test Code	CSRBC	Erythrocyte Casts; RBC Casts	A measurement of the red blood cell casts present in a biological specimen.	Red Blood Cell Cast Measurement
C74776	C65047		Laboratory Test Code	CSUNCLA	Unclassified Casts	A measurement of the unclassifiable casts present in a biological specimen.	Unclassified Cast Measurement
C74777	C65047		Laboratory Test Code	CSWAX	Waxy Casts	A measurement of the waxy casts present in a biological specimen.	Waxy Cell Cast Measurement
C74778	C65047		Laboratory Test Code	CSWBC	WBC Casts	A measurement of the white blood cell casts present in a biological specimen.	White Blood Cell Cast Measurement
C96593	C65047		Laboratory Test Code	CTC	Circulating Tumor Cells	A measurement of the circulating tumor cells in a biological specimen.	Circulating Tumor Cell Count
C186036	C65047		Laboratory Test Code	CTCAPOP	Circulating Tumor Cells, Apoptotic	A measurement of the apoptotic circulating tumor cells in a biological specimen.	Apoptotic Circulating Tumor Cell Count
C186037	C65047		Laboratory Test Code	CTCHLMN	Catecholamines	A measurement of the total catecholamines in a biological specimen.	Catecholamine Measurement
C186038	C65047		Laboratory Test Code	CTCTRAD	Circulating Tumor Cells, Traditional	A measurement of the traditional circulating tumor cells in a biological specimen.	Traditional Circulating Tumor Cell Count
C189504	C65047		Laboratory Test Code	CTGF	Cellular Communication Network Factor 2; CN2; Connective Tissue Growth Factor; IGFBP8	A measurement of the connective tissue growth factor in a biological specimen.	Connective Tissue Growth Factor Measurement
C189500	C65047		Laboratory Test Code	CTLCREAT	Citrulline/Creatinine	A relative measurement (ratio or percentage) of the citrulline to creatinine in a biological specimen.	Citrulline to Creatinine Ratio Measurement
C147327	C65047		Laboratory Test Code	CTLPRM	Citalopram	A measurement of the citalopram present in a biological specimen.	Citalopram Measurement
C189494	C65047		Laboratory Test Code	CTLPRMD	Desmethyl Citalopram; Desmethylcitalopram; Norcitalopram	A measurement of the desmethylcitalopram in a biological specimen.	Desmethylcitalopram Measurement
C189655	C65047		Laboratory Test Code	CTLPRMDD	Di-Desmethylcitalopram	A measurement of the di-desmethylcitalopram in a biological specimen.	Di-Desmethylcitalopram Measurement
C209581	C65047		Laboratory Test Code	CTNGLC	Cotinine Glucuronide; Cotinine N-B-D-Glucuronide; Cotinine N-beta-D-Glucuronide; Cotinine-Glucuronide; Cotinine-N-Glucuronide	A measurement of the cotinine glucuronide in a specimen.	Cotinine Glucuronide Measurement
C80160	C65047		Laboratory Test Code	CTOT	Complement Total; Total Hemolytic Complement	A measurement of the total complement in a biological specimen.	Complement Measurement
C199917	C65047		Laboratory Test Code	CTSD	Cathepsin D	A measurement of the cathepsin D in a biological specimen.	Cathepsin D Measurement
C82038	C65047		Laboratory Test Code	CTXI	C-Terminal Telopeptide of Type I Collagen; Type I Collagen C-Telopeptides; Type I Collagen X-linked C-telopeptide	A measurement of the type I collagen cross-linked C-telopeptides in a biological specimen.	Type I Collagen C-Telopeptide Measurement
C187792	C65047		Laboratory Test Code	CTXIB	B-CTx; Beta Isomer of C-Terminal Telopeptide of Type I Collagen; Beta-CrossLaps; Type I Collagen C-Telopeptides Beta	A measurement of the beta isomer of type I collagen cross-linked C-telopeptides in a biological specimen.	Beta Isomer of C-Terminal Telopeptide of Type I Collagen Measurement
C127613	C65047		Laboratory Test Code	CTXICRT	Type I Collagen C-Telopeptides/Creat; Type I Collagen X-Linked C-Telopeptides/Creatinine	A relative measurement (ratio or percentage) of the type I collagen cross-linked C-telopeptides to creatinine in a biological specimen.	Type I Collagen C-Telopeptide to Creatinine Ratio Measurement
C82040	C65047		Laboratory Test Code	CTXII	Type II Collagen C-Telopeptides; Type II Collagen X-Linked C-Telopeptides	A measurement of the type II collagen cross-linked C-telopeptides in a biological specimen.	Type II Collagen C-Telopeptide Measurement
C122113	C65047		Laboratory Test Code	CTXIICRT	Type II Collagen C-Telopeptides/Creat; Type II Collagen X-Linked C-Telopeptides/Creatinine	A relative measurement (ratio or percentage) of the type II collagen cross-linked C-telopeptides to creatinine in a biological specimen.	Type II Collagen C-Telopeptides to Creatinine Ratio Measurement
C221572	C65047		Laboratory Test Code	CTXIII	Cross-Linked C-telopeptide of Type III Collagen; Type III Collagen C-Telopeptides; Type III Collagen X-Linked C-Telopeptides	A measurement of the type III collagen cross-linked C-telopeptides in a biological specimen.	Type III Collagen Cross-Linked C-Telopeptide Measurement
C161361	C65047		Laboratory Test Code	CX3CL1	Chemokine (C-X3-C motif) Ligand 1; Fractalkine; Neurotactin	A measurement of the chemokine (C-X3-C motif) ligand 1 in a biological specimen.	Chemokine (C-X3-C Motif) Ligand 1 Measurement
C128952	C65047		Laboratory Test Code	CXCL1	Chemokine (C-X-C Motif) Ligand 1; GRO Alpha; GRO/KC; GRO1; GROA; Growth-Regulated Alpha Protein; Melanoma Growth Stimulating Activity, Alpha	A measurement of the CXCL1, chemokine (C-X-C motif) ligand 1, in a biological specimen.	Chemokine (C-X-C Motif) Ligand 1 Measurement
C112238	C65047		Laboratory Test Code	CXCL10	Chemokine (C-X-C Motif) Ligand 10; Interferon Gamma-induced Protein 10; Interferon-inducible Protein-10; IP-10; Small-inducible Cytokine B10	A measurement of the CXCL10, chemokine (C-X-C motif) ligand 10, in a biological specimen.	Chemokine (C-X-C Motif) Ligand 10 Measurement
C161360	C65047		Laboratory Test Code	CXCL11	Chemokine (C-X-C Motif) Ligand 11; I-TAC; IFN-inducible T Cell Alpha Chemoattractant; ITAC	A measurement of the chemokine (C-X-C motif) ligand 11 in a biological specimen.	Chemokine (C-X-C Motif) Ligand 11 Measurement
C165954	C65047		Laboratory Test Code	CXCL12	Chemokine (C-X-C Motif) Ligand 12; IRH; PBSF; SCYB12; SDF1; SDF1A; SDF1B; Stromal Cell-Derived Factor-1 Alpha; Stromal Cell-Derived Factor-1 Beta; TLSF; TPAR1	A measurement of the CXCL12, chemokine (C-X-C motif) ligand 12, in a biological specimen.	Chemokine (C-X-C Motif) Ligand 12 Measurement
C147328	C65047		Laboratory Test Code	CXCL13	B Lymphocyte Chemoattractant; Chemokine (C-X-C Motif) Ligand 13	A measurement of the CXCL13, chemokine (C-X-C motif) ligand 13, in a biological specimen.	Chemokine (C-X-C Motif) Ligand 13 Measurement
C186039	C65047		Laboratory Test Code	CXCL2	Chemokine (C-X-C Motif) Ligand 2; GRO Beta; GRO2; MIP2-Alpha	A measurement of the CXCL2, chemokine (C-X-C motif) ligand 2, in a biological specimen.	Chemokine (C-X-C Motif) Ligand 2 Measurement
C147329	C65047		Laboratory Test Code	CXCL3	Chemokine (C-X-C Motif) Ligand 3; GRO Gamma; Macrophage Inflammatory Protein 2-Beta; MIP2 Beta; MIP2B	A measurement of the CXCL3, chemokine (C-X-C motif) ligand 3, in a biological specimen.	Chemokine (C-X-C Motif) Ligand 3 Measurement
C147330	C65047		Laboratory Test Code	CXCL4	Chemokine (C-X-C Motif) Ligand 4; Oncostatin A; Platelet Factor 4; PLF4	A measurement of the CXCL4, chemokine (C-X-C motif) ligand 4, in a biological specimen.	Chemokine (C-X-C Motif) Ligand 4 Measurement
C130159	C65047		Laboratory Test Code	CXCL6	Chemokine (C-X-C Motif) Ligand 6; GCP2; Granulocyte Chemotactic Protein 2	A measurement of the CXCL6, chemokine (C-X-C motif) ligand 6, in a biological specimen.	Chemokine (C-X-C Motif) Ligand 6 Measurement
C165955	C65047		Laboratory Test Code	CXCL7	B-TG1; Beta-TG; Chemokine (C-X-C Motif) Ligand 7; CTAP-III; CTAP3; CTAPIII; LA-PF4; LDGF; MDGF; NAP-2; Neutrophil-Activating Peptide 2; PBP; PPBP; Pro-Platelet Basic Protein; SCYB7; TC1; TC2; TGB; TGB1; THBGB; THBGB1	A measurement of the pro-platelet basic protein in a biological specimen.	Chemokine (C-X-C Motif) Ligand 7 Measurement
C165956	C65047		Laboratory Test Code	CXCL9	Chemokine (C-X-C Motif) Ligand 9; CMK; crg-10; Humig; MIG; Monokine Induced by Gamma Interferon; SCYB9	A measurement of the CXCL9, chemokine (C-X-C motif) ligand 9, in a biological specimen.	Chemokine (C-X-C Motif) Ligand 9 Measurement
C100431	C65047		Laboratory Test Code	CXCR3	Chemokine (C-X-C Motif) Receptor 3; CXCR3; GPR9; Soluble CD183	A measurement of the CXCR3, chemokine (C-X-C motif) receptor 3, in a biological specimen.	Chemokine Receptor CXCR3 Measurement
C187797	C65047		Laboratory Test Code	CXCR4	Chemokine (C-X-C Motif) Receptor 4; LPS-Associated Protein 3; Soluble CD184; Stromal Cell-Derived Factor 1 Receptor	A measurement of the CXCR4, chemokine (C-X-C motif) receptor 4, in a biological specimen.	C-X-C Chemokine Receptor Type 4 Measurement
C105590	C65047		Laboratory Test Code	CYAMMBIU	Acid Ammonium Urate Crystals; Ammonium Biurate Crystals; Ammonium Urate Crystals	A measurement of the ammonium biurate crystals present in a biological specimen.	Ammonium Biurate Crystals Measurement
C213924	C65047		Laboratory Test Code	CYAMMOX	Ammonium Oxalate Crystals	A measurement of the ammonium oxalate crystals in a biological specimen.	Ammonium Oxalate Crystal Measurement
C74665	C65047		Laboratory Test Code	CYAMORPH	Amorphous Crystals	A measurement of the amorphous (Note: phosphate or urate, depending on pH) crystals present in a biological specimen.	Amorphous Crystal Measurement
C92243	C65047		Laboratory Test Code	CYAMPPH	Amorphous Phosphate Crystals	A measurement of the amorphous phosphate crystals in a biological specimen.	Amorphous Phosphate Crystals Measurement
C92244	C65047		Laboratory Test Code	CYAMPURT	Amorphous Urate Crystals	A measurement of the amorphous urate crystals in a biological specimen.	Amorphous Urate Crystals Measurement
C74668	C65047		Laboratory Test Code	CYBILI	Bilirubin Crystals	A measurement of the bilirubin crystals present in a biological specimen.	Bilirubin Crystal Measurement
C74669	C65047		Laboratory Test Code	CYCACAR	Calcium Carbonate Crystals	A measurement of the calcium carbonate crystals present in a biological specimen.	Calcium Carbonate Crystal Measurement
C74670	C65047		Laboratory Test Code	CYCAOXA	Calcium Oxalate Crystals	A measurement of the calcium oxalate crystals present in a biological specimen.	Calcium Oxalate Crystal Measurement
C74671	C65047		Laboratory Test Code	CYCAPHOS	Calcium Phosphate Crystals	A measurement of the calcium phosphate crystals present in a biological specimen.	Calcium Phosphate Crystal Measurement
C124340	C65047		Laboratory Test Code	CYCASULF	Calcium Sulfate Crystals	A measurement of the calcium sulfate crystals present in a biological specimen.	Calcium Sulfate Crystals Measurement
C74672	C65047		Laboratory Test Code	CYCHOL	Cholesterol Crystals	A measurement of the cholesterol crystals present in a biological specimen.	Cholesterol Crystal Measurement
C209582	C65047		Laboratory Test Code	CYCHRLDN	Charcot Leyden Crystals; Charcot-Leyden Crystals; CLC; Galectin-10 Crystals	A measurement of the Charcot-Leyden crystals present in a biological specimen.	Charcot-Leyden Crystal Measurement
C74674	C65047		Laboratory Test Code	CYCYSTIN	Cystine Crystals	A measurement of the cystine crystals present in a biological specimen.	Cystine Crystal Measurement
C135407	C65047		Laboratory Test Code	CYDCPHOS	Dicalcium Phosphate Crystals	A measurement of dicalcium phosphate crystals in a biological specimen.	Dicalcium Phosphate Crystals Measurement
C156533	C65047		Laboratory Test Code	CYDRUG	Drug Crystals	A measurement of the drug crystals in a biological specimen.	Drug Crystal Measurement
C209583	C65047		Laboratory Test Code	CYEMA2	2-Cyanoethmercapturate; 2-Cyanoethyl Mercapturic Acid; 2-Cyanoethylmercapturic Acid; CEMA	A measurement of the 2-cyanoethyl mercapturic acid in a specimen.	2-Cyanoethyl Mercapturic Acid Measurement
C209584	C65047		Laboratory Test Code	CYEMA2CY	2-Cyanoethyl Mercapturate Cysteine; 2-Cyanoethyl Mercapturic Acid Cysteine; 2-Cyanoethylmercapturic Acid Cysteine; 2-CyEMA; N-Acetyl-S-(2-Cyanoethyl)-L-Cysteine	A measurement of the 2-cyanoethyl mercapturic acid cysteine in a specimen.	2-Cyanoethyl Mercapturic Acid Cysteine Measurement
C130160	C65047		Laboratory Test Code	CYFRA18	Cytokeratin 18 Fragment	A measurement of the cytokeratin 18 fragment in a biological specimen.	Cytokeratin 18 Fragment Measurement
C106514	C65047		Laboratory Test Code	CYFRA211	CYFRA21-1; Cytokeratin 19 Fragment 21-1	A measurement of the cytokeratin 19 fragment 21-1 in a biological specimen.	Cytokeratin 19 Fragment 21-1 Measurement
C112288	C65047		Laboratory Test Code	CYHGBC	Hemoglobin C Crystals	A measurement of hemoglobin C crystals in a biological specimen.	Hemoglobin C Crystals Measurement
C74754	C65047		Laboratory Test Code	CYHIPPAC	Hippurate Crystals; Hippuric Acid Crystals	A measurement of the hippuric acid crystals present in a biological specimen.	Hippuric Acid Crystal Measurement
C74680	C65047		Laboratory Test Code	CYLEUC	Leucine Crystals	A measurement of the leucine crystals present in a biological specimen.	Leucine Crystal Measurement
C74681	C65047		Laboratory Test Code	CYMSU	Monosodium Urate Crystals; Sodium Urate Crystals	A measurement of the monosodium urate crystals present in a biological specimen.	Monosodium Urate Crystal Measurement
C209585	C65047		Laboratory Test Code	CYP2A6	Cytochrome P450 2A6	A measurement of the cytochrome P450 2A6 enzyme in a specimen.	Cytochrome P450 2A6 Measurement
C161355	C65047		Laboratory Test Code	CYP2C9	Cytochrome P450 2C9	A measurement of the cytochrome P450 2C9 enzyme in a biological specimen.	Cytochrome P450 2C9 Measurement
C174304	C65047		Laboratory Test Code	CYPHOS	Phosphate Crystals	A measurement of the total phosphate crystals in a biological specimen.	Phosphate Crystals Measurement
C106513	C65047		Laboratory Test Code	CYSCREAT	Cystatin C/Creatinine	A relative measurement (ratio or percentage) of the cystatin C to creatinine present in a sample.	Cystatin C to Creatinine Ratio Measurement
C189517	C65047		Laboratory Test Code	CYSLTR1	CysLTR1; Cysteinyl Leukotriene Receptor 1	A measurement of the cysteinyl leukotriene receptor 1 in a biological specimen.	Cysteinyl Leukotriene Receptor 1 Measurement
C81951	C65047		Laboratory Test Code	CYSTARCH	Starch Crystals; Starch Granules	A measurement of the starch crystals in a biological specimen.	Starch Crystal Measurement
C199920	C65047		Laboratory Test Code	CYSTATB	CPI-B; Cystatin B	A measurement of the cystatin B in a biological specimen.	Cystatin B Measurement
C92290	C65047		Laboratory Test Code	CYSTATC	Cystatin C	A measurement of the cystatin C in a biological specimen.	Cystatin C Measurement
C172518	C65047		Laboratory Test Code	CYSTEINE	Cysteine	A measurement of the cysteine in a biological specimen.	Cysteine Measurement
C147331	C65047		Laboratory Test Code	CYSTHION	Cystathionine	A measurement of the cystathionine in a biological specimen.	Cystathionine Measurement
C105441	C65047		Laboratory Test Code	CYSTINE	Cystine	A measurement of the cystine in a biological specimen.	Cystine Measurement
C74755	C65047		Laboratory Test Code	CYSULFA	Sulfa Crystals; Sulfonamide Crystals	A measurement of the sulfa crystals present in a biological specimen.	Sulfa Crystal Measurement
C74756	C65047		Laboratory Test Code	CYTRPHOS	Ammonium Magnesium Phosphate Crystals; Struvite Crystals; Triple Phosphate Crystals	A measurement of the triple phosphate crystals present in a biological specimen.	Triple Phosphate Crystal Measurement
C74683	C65047		Laboratory Test Code	CYTYRO	Tyrosine Crystals	A measurement of the tyrosine crystals present in a biological specimen.	Tyrosine Crystal Measurement
C74757	C65047		Laboratory Test Code	CYUNCLA	Unclassified Crystals	A measurement of the unclassifiable crystals present in a biological specimen.	Unclassified Crystal Measurement
C74684	C65047		Laboratory Test Code	CYURIAC	Uric Acid Crystals	A measurement of the uric acid crystals (including acid urate and urate crystals) present in a biological specimen.	Uric Acid Crystal Measurement
C225599	C65047		Laboratory Test Code	DAGLYCRL	DAGs; Diacylglycerol; Diacylglycerols; Diglycerides	A measurement of the diacylglycerol in a biological specimen.	Diacylglycerol Measurement
C156537	C65047		Laboratory Test Code	DALA	5-Aminolevulinic Acid; 5ALA; dALA; Delta Aminolevulinate; Delta Aminolevulinic Acid	A measurement of the delta aminolevulinic acid in a biological specimen.	Delta Aminolevulinate Measurement
C156538	C65047		Laboratory Test Code	DALACRT	Delta Aminolevulinate/Creatinine	A relative measurement (ratio or percentage) of the delta aminolevulinate to creatinine in a biological specimen.	Delta Aminolevulinate to Creatinine Ratio Measurement
C172500	C65047		Laboratory Test Code	DCA	Deoxycholate; Deoxycholic Acid	A measurement of the deoxycholate in a biological specimen.	Deoxycholate Measurement
C156536	C65047		Laboratory Test Code	DCCARNIT	C10; Decanoylcarnitine	A measurement of the decanoylcarnitine in a biological specimen.	Decanoylcarnitine Measurement
C82621	C65047		Laboratory Test Code	DDIMER	D-Dimer	A measurement of the d-dimers in a biological specimen.	D-Dimer Measurement
C154769	C65047		Laboratory Test Code	DDNAIGAB	Anti-Double Stranded DNA IgG	A measurement of the double stranded DNA IgG antibody in a biological specimen.	Anti-Double Stranded DNA IgG Measurement
C163428	C65047		Laboratory Test Code	DDX58	DEAD Box Protein 58; DExD/H-Box Helicase 58; Probable ATP-Dependent RNA Helicase DDX58	A measurement of the DEAD box protein 58 in a biological specimen.	DEAD Box Protein 58 Measurement
C172512	C65047		Laboratory Test Code	DECORIN	DCN; Decorin	A measurement of the decorin in a biological specimen.	Decorin Measurement
C45781	C65047		Laboratory Test Code	DENSITY	Density	A measurement of the compactness of a biological specimen expressed in mass per unit volume.	Density
C186040	C65047		Laboratory Test Code	DESIPRMN	Desipramine	A measurement of the desipramine in a biological specimen.	Desipramine Measurement
C209586	C65047		Laboratory Test Code	DESMSN	DES; Desmosine	A measurement of the desmosine in a specimen.	Desmosine Measurement
C184614	C65047		Laboratory Test Code	DETHPRPN	Diethylpropion	A measurement of the diethylpropion in a biological specimen.	Diethylpropion Measurement
C135408	C65047		Laboratory Test Code	DFI	DNA Fragmentation Index	A measurement of the deoxyribonucleic acid fragmentation within the nucleated cells of a biological specimen.	DNA Fragmentation Index
C111190	C65047		Laboratory Test Code	DGNWBC	Degenerated Leukocytes; Degenerated WBC; Degenerated White Blood Cells	A measurement of the degenerated leukocytes (leukocytes that show deterioration in form or function) in a biological specimen.	Degenerated Leukocyte Count
C74852	C65047		Laboratory Test Code	DHEA	Dehydroepiandrosterone; Dehydroisoandrosterone	A measurement of the dehydroepiandrosterone hormone in a biological specimen.	Dehydroepiandrosterone Measurement
C96629	C65047		Laboratory Test Code	DHEAS	Dehydroepiandrosterone Sulfate; DHEA Sulfate; DHEA-S; sDHEA	A measurement of the sulfated Dehydroepiandrosterone in a biological specimen.	Sulfated DHEA Measurement
C101017	C65047		Laboratory Test Code	DHPG	3,4-Dihydroxyphenylglycol; 3.4 Dihydroxyphenylglycol	A measurement of the catecholamine metabolite, 3,4-Dihydroxyphenylglycol in a biological specimen.	3,4-Dihydroxyphenylglycol Measurement
C74853	C65047		Laboratory Test Code	DHT	Androstanolone; Dihydrotestosterone	A measurement of the dihydrotestosterone hormone in a biological specimen.	Dihydrotestosterone Measurement
C209587	C65047		Laboratory Test Code	DHXPMA23	2,3-dihydroxypropyl Mercapturate; 2,3-dihydroxypropyl Mercapturic Acid; DHPMA	A measurement of the 2,3-dihydroxypropyl mercapturic acid in a specimen.	2,3-dihydroxypropyl Mercapturic Acid Measurement
C74878	C65047		Laboratory Test Code	DIHYDCDN	Dihydrocodeine	A measurement of the dihydrocodeine present in a biological specimen.	Dihydrocodeine Measurement
C165957	C65047		Laboratory Test Code	DKK1	Dickkopf WNT Signaling Pathway Inhibitor 1; DKK-1; SK	A measurement of the dickkopf WNT signaling pathway inhibitor 1 in a biological specimen.	Dickkopf WNT Signaling Path Inhibitor 1 Measurement
C172519	C65047		Laboratory Test Code	DMG	Dimethylglycine	A measurement of the dimethylglycine in a biological specimen.	Dimethylglycine Measurement
C184536	C65047		Laboratory Test Code	DMTNN	Dimethyltryptamine; DMT; N,N-Dimethyltryptamine	A measurement of the N,N-dimethyltryptamine in a biological specimen.	N,N-Dimethyltryptamine Measurement
C135409	C65047		Laboratory Test Code	DNA	Deoxyribonucleic Acid	A measurement of a targeted deoxyribonucleic acid (DNA) in a biological specimen.	Deoxyribonucleic Acid Measurement
C174298	C65047		Laboratory Test Code	DNPSEPHD	(+)-Norpseudoephedrine; Cathine; D-Norpseudoephedrine	A measurement of the D-norpseudoephedrine in a biological specimen.	D-Norpseudoephedrine Measurement
C74610	C65047		Laboratory Test Code	DOHLE	Dohle Bodies	A measurement of the Dohle bodies (blue-gray, basophilic, leukocyte inclusions located in the peripheral cytoplasm of neutrophils) in a biological specimen.	Dohle Body Measurement
C103345	C65047		Laboratory Test Code	DOPAC	3,4-Dihydroxyphenylacetic Acid	A measurement of the 3,4-dihydroxyphenylacetic acid in a biological specimen.	3,4-Dihydroxyphenylacetic Acid Measurement
C163429	C65047		Laboratory Test Code	DOPAMEXR	Dopamine Excretion Rate	A measurement of the amount of dopamine being excreted in a biological specimen over a defined amount of time (e.g. one hour).	Dopamine Excretion Rate
C74854	C65047		Laboratory Test Code	DOPAMINE	Dopamine	A measurement of the dopamine hormone in a biological specimen.	Dopamine Measurement
C184582	C65047		Laboratory Test Code	DOXMTST	Desoxymethyltestosterone	A measurement of the desoxymethyltestosterone in a biological specimen.	Desoxymethyltestosterone Measurement
C191285	C65047		Laboratory Test Code	DOXPN	Doxepin	A measurement of the doxepin present in a biological specimen.	Doxepin Measurement
C186041	C65047		Laboratory Test Code	DOXPNAOM	Doxepin and/or Metabolites	A measurement of the doxepin and/or its metabolite(s) present in a biological specimen, for an assay that can measure both doxepin and its metabolites.	Doxepin And/Or Metabolites Measurement
C79443	C65047		Laboratory Test Code	DPD	Deoxypyridinoline	A measurement of the deoxypyridinoline in a biological specimen.	Deoxypyridinoline Measurement
C79444	C65047		Laboratory Test Code	DPDCREAT	Deoxypyridinoline/Creatinine	A relative measurement (ratio or percentage) of the deoxypyridinoline to creatinine in a biological specimen.	Deoxypyridinoline to Creatinine Ratio Measurement
C184569	C65047		Laboratory Test Code	DPHNOXLT	Diphenoxylate	A measurement of the diphenoxylate in a biological specimen.	Diphenoxylate Measurement
C184540	C65047		Laboratory Test Code	DPIPANON	Dipipanone	A measurement of the dipipanone in a biological specimen.	Dipipanone Measurement
C177992	C65047		Laboratory Test Code	DPPIV	Dipeptidyl Peptidase-4	A measurement of the dipeptidyl peptidase-4 in a biological specimen.	Dipeptidyl Peptidase-4 Measurement
C184583	C65047		Laboratory Test Code	DRSTNLN	Dromostanolone; Drostanolone; Medrosteron; Medrotestron; Metholone	A measurement of the drostanolone in a biological specimen.	Drostanolone Measurement
C78139	C65047		Laboratory Test Code	DRUGSCR	Drug Screen	An indication of the presence or absence of recreational drugs or drugs of abuse in a biological specimen.	Drug Test
C161373	C65047		Laboratory Test Code	DRVTSCPD	dRVVT Screen to Confirm Pct Difference; dRVVT Screen to Confirm Percent Difference	A measurement to confirm the presence of Lupus anticoagulants, calculated as [(Screen dRVVT - Confirm dRVVT)/Screen dRVVT]x100.	dRVVT Screen to Confirm Percent Difference
C96696	C65047		Laboratory Test Code	DRVVT	Dilute Russell's Viper Venom Time; Lupus Anticoagulant Test	A measurement of the time it takes a plasma sample to clot after adding dilute Russell's viper venom.	Dilute Russell's Viper Venom Time Measurement
C103386	C65047		Laboratory Test Code	DRVVTRT	Dilute Russell's Viper Venom Time Ratio; Lupus Anticoagulant Ratio	A relative measurement of the dilute Russell's viper venom time in a subject sample to a control sample.	Dilute Russell's Viper Venom Time to Control Ratio Measurement
C163430	C65047		Laboratory Test Code	DRVVTSCR	DRVVT Screen to Confirm Ratio	A relative measurement (ratio) of the dilute Russell's viper venom time without the presence of excess phospholipid to the dRVVT in the presence of excess phospholipid.	Dilute Russell's Viper Venom Time to Confirm Ratio Measurement
C147333	C65047		Laboratory Test Code	DSVLFXN	Desvenlafaxine; O-Desmethylvenlafaxine	A measurement of the desvenlafaxine present in a biological specimen.	Desvenlafaxine Measurement
C100441	C65047		Laboratory Test Code	DTPACLR	DTPA Clearance	A measurement of the volume of serum or plasma that would be cleared of Diethylenetriamine pentaacetate (DTPA) by excretion of urine for a specified unit of time (e.g. one minute).	Diethylene Triamine Pentaacetic Acid Clearance
C187798	C65047		Laboratory Test Code	DULOXTN	Duloxetine	A measurement of the duloxetine in a biological specimen.	Duloxetine Measurement
C201431	C65047		Laboratory Test Code	DUPAN2	DU-PAN-2; Duke Pancreatic Monoclonal Antigen Type 2; DUPAN-2	A measurement of the DU-PAN-2 antigen in a biological specimen.	Duke Pancreatic Monoclonal Antigen Type 2 Measurement
C186042	C65047		Laboratory Test Code	DXCSD11	11-Deoxycorticoids; 11-Deoxycorticosteroid; 11-Deoxycorticosteroids	A measurement of the total 11-deoxycorticosteroids in a biological specimen.	11-Deoxycorticosteroid Measurement
C186043	C65047		Laboratory Test Code	DXCSL11	11-Deoxycortisol	A measurement of the 11-deoxycortisol in a biological specimen.	11-Deoxycortisol Measurement
C186044	C65047		Laboratory Test Code	DXCSL21	21-Deoxycortisol	A measurement of the 21-deoxycortisol in a biological specimen.	21-Deoxycortisol Measurement
C186045	C65047		Laboratory Test Code	DXCSN11	11-Deoxycorticosterone; 21-Hydroxyprogesterone; Cortexone; Deoxycortone; Desoxycortone	A measurement of the 11-deoxycorticosterone in a biological specimen.	11-Deoxycorticosterone Measurement
C186046	C65047		Laboratory Test Code	DXCSN21	21-Deoxycorticosterone	A measurement of the 21-deoxycorticosterone in a biological specimen.	21-Deoxycorticosterone Measurement
C209442	C65047		Laboratory Test Code	DYSTPN	Dystrophin	A measurement of the total dystrophin in a biological specimen.	Dystrophin Measurement
C209588	C65047		Laboratory Test Code	DYSTPNAC	Dystrophin Actual/Control; Dystrophin Actual/Normal	A relative measurement (ratio or percentage) of the dystrophin in a subject's specimen when compared to a control specimen.	Dystrophin Actual to Control Ratio Measurement
C75372	C65047		Laboratory Test Code	DZPM	Diazepam	A measurement of the diazepam present in a biological specimen.	Diazepam Measurement
C163431	C65047		Laboratory Test Code	E1S	E1S; Estrone 3-Sulfate; Estrone Sulfate	A measurement of the estrone sulfate in a biological specimen.	Estrone Sulfate Measurement
C142275	C65047		Laboratory Test Code	EAGLUC	EAG; Estimated Average Glucose; Glucose, Estimated; Glucose, Estimated Average	A computed estimate of the blood glucose based on the value of the glycated hemoglobin.	Estimated Average Glucose Measurement
C96598	C65047		Laboratory Test Code	ECCENTCY	Eccentrocytes	A measurement of the eccentrocytes (erythrocytes in which the hemoglobin is localized to a particular portion of the cell, noticeable as localized staining) in a biological specimen.	Eccentrocyte Count
C209589	C65047		Laboratory Test Code	ECP	Eosinophil Cationic Protein; Ribonuclease A Family Member 3; RNase 3	A measurement of the eosinophil cationic protein in a biological specimen.	Eosinophil Cationic Protein Measurement
C100422	C65047		Laboratory Test Code	ECT	Ecarin Clotting Time	A measurement of the activity of thrombin inhibitors in a biological specimen based on the generation of meizothrombin.	Ecarin Clotting Time Measurement
C75353	C65047		Laboratory Test Code	EDDP	2-ethylidene-1,5-dimethyl-3,3-diphenylpyrrolidine; EDDP	A measurement of the methadone metabolite 2-ethylidene-1,5-dimethyl-3,3-diphenylpyrrolidine present in a biological specimen.	EDDP Measurement
C184644	C65047		Laboratory Test Code	EDN	Eosinophil Protein-X; Eosinophil-Derived Neurotoxin; RAF3; Ribonuclease A Family Member 2	A measurement of the eosinophil-derived neurotoxin in a biological specimen.	Eosinophil-Derived Neurotoxin Measurement
C100440	C65047		Laboratory Test Code	EDTACLR	EDTA Clearance	A measurement of the volume of serum or plasma that would be cleared of Ethylenediamine tetraacetic acid (EDTA) by excretion of urine for a specified unit of time (e.g. one minute).	EDTA Clearance
C82009	C65047		Laboratory Test Code	EGF	Epidermal Growth Factor	A measurement of the epidermal growth factor in a biological specimen.	Epidermal Growth Factor Measurement
C112273	C65047		Laboratory Test Code	EGFR	Epidermal Growth Factor Receptor; ERBB1; HER1	A measurement of the epidermal growth factor receptor in a biological specimen.	Epidermal Growth Factor Receptor Measurement
C181452	C65047		Laboratory Test Code	EGFRFR	Epidermal Growth Factor Receptor, Free	A measurement of the free (unbound) epidermal growth factor receptor in a biological specimen.	Free Epidermal Growth Factor Receptor Measurement
C82028	C65047		Laboratory Test Code	ELA1	Pancreatic Elastase 1	A measurement of the pancreatic elastase 1 in a biological specimen.	Pancreatic Elastase Measurement
C82029	C65047		Laboratory Test Code	ELA1PMN	Pancreatic Elastase 1, Polymorphonuclear	A measurement of the polymorphonuclear pancreatic elastase 1 in a biological specimen.	Polymorphonuclear Pancreatic Elastase Measurement
C82026	C65047		Laboratory Test Code	ELA2	Neutrophil Elastase	A measurement of the neutrophil elastase in a biological specimen.	Neutrophil Elastase Measurement
C82027	C65047		Laboratory Test Code	ELA2PMN	Neutrophil Elastase, Polymorphonuclear	A measurement of the polymorphonuclear neutrophil elastase in a biological specimen.	Polymorphonuclear Neutrophil Elastase Measurement
C221571	C65047		Laboratory Test Code	ELASTIN	Elastin	A measurement of the elastin in a biological specimen.	Elastin Measurement
C64549	C65047		Laboratory Test Code	ELLIPCY	Elliptocytes	A measurement of the elliptocytes (elliptically shaped cell with blunt ends and a long axis twice the length of its short axis) in a biological specimen.	Elliptocyte Count
C221576	C65047		Laboratory Test Code	ELP3	Elongator Acetyltransferase Complex Sub3; Elongator Acetyltransferase Complex Subunit 3; ELP-3; Protein Lysine Acetyltransferase ELP3; Proteinase-3 Degraded Elastin; TRNA Uridine(34) Acetyltransferase	A measurement of the elongator acetyltransferase complex subunit 3 in a biological specimen.	Elongator Acetyltransferase Complex Subunit 3 Measurement
C184555	C65047		Laboratory Test Code	EMA	Ethylamphetamine; Etilamfetamine; N-Ethylamphetamine	A measurement of the ethylamphetamine in a biological specimen.	Ethylamphetamine Measurement
C82010	C65047		Laboratory Test Code	ENA78	Epith Neutrophil-Activating Peptide 78	A measurement of the epithelial neutrophil-activating peptide in a biological specimen.	Epithelial Neutrophil-Activating Peptide 78 Measurement
C172509	C65047		Laboratory Test Code	ENDOSTN	Collagen Type XVIII Alpha 1 Chain; Endostatin	A measurement of the endostatin in a biological specimen.	Endostatin Measurement
C82008	C65047		Laboratory Test Code	ENDOTH1	Endothelin-1	A measurement of the endothelin-1 in a biological specimen.	Endothelin-1 Measurement
C187800	C65047		Laboratory Test Code	ENDOTH3	Endothelin-3; ET-3	A measurement of the endothelin-3 in a biological specimen.	Endothelin-3 Measurement
C82011	C65047		Laboratory Test Code	ENRAGE	Extracell Newly Ident RAGE Bind Protein; S100 Calcium Binding Protein A12	A measurement of the extracellular newly identified RAGE (receptor for advanced glycation end products) binding protein in a biological specimen.	Extracell Newly Ident RAGE Bind Protein Measurement
C64550	C65047		Laboratory Test Code	EOS	Eosinophils	A measurement of the eosinophils in a biological specimen.	Eosinophil Count
C114216	C65047		Laboratory Test Code	EOSB	Eosinophils Band Form	A measurement of the banded eosinophils in a biological specimen.	Eosinophil Band Form Count
C114217	C65047		Laboratory Test Code	EOSBLE	Eosinophils Band Form/Leukocytes	A relative measurement (ratio or percentage) of the banded eosinophils to leukocytes in a biological specimen.	Eosinophil Band Form to Leukocyte Ratio
C98720	C65047		Laboratory Test Code	EOSCE	Eosinophils/Total Cells	A relative measurement (ratio or percentage) of the eosinophils to total cells in a biological specimen (for example a bone marrow specimen).	Eosinophils to Total Cell Ratio Measurement
C96673	C65047		Laboratory Test Code	EOSIM	Immature Eosinophils	A measurement of the immature eosinophils in a biological specimen.	Immature Eosinophil Count
C96674	C65047		Laboratory Test Code	EOSIMLE	Immature Eosinophils/Leukocytes	A relative measurement (ratio or percentage) of immature eosinophils to total leukocytes in a biological specimen.	Immature Eosinophil to Leukocyte Ratio Measurement
C64604	C65047		Laboratory Test Code	EOSLE	Eosinophils/Leukocytes	A relative measurement (ratio or percentage) of the eosinophils to leukocytes in a biological specimen.	Eosinophil to Leukocyte Ratio
C84819	C65047		Laboratory Test Code	EOSMM	Eosinophilic Metamyelocytes	A measurement of the eosinphilic metamyelocytes in a biological specimen.	Eosinophilic Metamyelocyte Count
C84821	C65047		Laboratory Test Code	EOSMYL	Eosinophilic Myelocytes	A measurement of the eosinophilic myelocytes in a biological specimen.	Eosinophilic Myelocyte Count
C181449	C65047		Laboratory Test Code	EOSMYLLY	Eosinophilic Myelocytes/Lymphocytes	A relative measurement (ratio or percentage) of the eosinophilic myelocytes to lymphocytes in a biological specimen (for example a bone marrow specimen).	Eosinophilic Myelocytes to Lymphocytes Ratio Measurement
C135411	C65047		Laboratory Test Code	EOSNSQE	Eosinophils/Non-Squam Epi Cells	A relative measurement (ratio or percentage) of the eosinophils to non-squamous epithelial cells in a biological specimen.	Eosinophils to Non-Squamous Epithelial Cells Ratio Measurement
C165958	C65047		Laboratory Test Code	EOSPSD	Pseudo-Eosinophils	A measurement of the pseudo-eosinophils in a biological specimen.	Pseudo-Eosinophil Count
C165959	C65047		Laboratory Test Code	EOSPSDLE	Pseudo-Eosinophils/Leukocytes	A relative measurement (ratio or percentage) of the pseudo-eosinophils to the leukocytes in a biological specimen.	Pseudo-Eosinophils to Leukocyte Ratio Measurement
C135412	C65047		Laboratory Test Code	EOSSG	Eosinophils, Segmented	A measurement of the segmented eosinophils in a biological specimen.	Segmented Eosinophil Count
C81952	C65047		Laboratory Test Code	EOTAXIN1	Chemokine Ligand 11; Eotaxin-1	A measurement of the eotaxin-1 in a biological specimen.	Eotaxin-1 Measurement
C81953	C65047		Laboratory Test Code	EOTAXIN2	Chemokine Ligand 24; Eotaxin-2	A measurement of the eotaxin-2 in a biological specimen.	Eotaxin-2 Measurement
C81954	C65047		Laboratory Test Code	EOTAXIN3	CCL26; Chemokine (C-C Motif) Ligand 26; Chemokine Ligand 26; Eotaxin-3	A measurement of the eotaxin-3 in a biological specimen.	Eotaxin-3 Measurement
C174296	C65047		Laboratory Test Code	EPHD	Ephedrine	A measurement of the ephedrine in a biological specimen.	Ephedrine Measurement
C64605	C65047		Laboratory Test Code	EPIC	Epithelial Cells	A measurement of the epithelial cells in a biological specimen.	Epithelial Cell Count
C130161	C65047		Laboratory Test Code	EPICCE	Epithelial Cells/Total Cells	A relative measurement (ratio or percentage) of the epithelial cells to total cells in a biological specimen.	Epithelial Cells to Total Cells Ratio Measurement
C187801	C65047		Laboratory Test Code	EPICCLMP	Epithelial Cell Clumps	A measurement of the epithelial cell clumps in a biological specimen.	Epithelial Cell Clumps Measurement
C79445	C65047		Laboratory Test Code	EPIN	Adrenaline; Epinephrine	A measurement of the epinephrine hormone in a biological specimen.	Epinephrine Measurement
C163433	C65047		Laboratory Test Code	EPINEXR	Epinephrine Excretion Rate	A measurement of the amount of epinephrine being excreted in a biological specimen over a defined amount of time (e.g. one hour).	Epinephrine Excretion Rate
C135413	C65047		Laboratory Test Code	EPINSQCE	Non-Squamous Epithelial Cells	A measurement of the non-squamous epithelial cells in a biological specimen.	Non-Squamous Epithelial Cell Count
C135414	C65047		Laboratory Test Code	EPINSQE	Epi Cells/Non-Squam Epi Cells	A relative measurement (ratio or percentage) of the epithelial cells to non-squamous epithelial cells in a biological specimen.	Epithelial Cells to Non-Squamous Epithelial Cells Ratio Measurement
C170595	C65047		Laboratory Test Code	EPIRCE	Renal Epithelial Cells	A measurement of the renal epithelial cells in a biological specimen.	Renal Epithelial Cells Measurement
C74698	C65047		Laboratory Test Code	EPIROCE	Round Epithelial Cells	A measurement of the round epithelial cells present in a biological specimen.	Round Epithelial Cell Count
C132366	C65047		Laboratory Test Code	EPISCECE	Squamous Cells/Total Cells; Squamous Epithelial Cells/Total Cells	A relative measurement (ratio or percentage) of the squamous epithelial cells to total cells in a biological specimen.	Squamous Epithelial Cells to Total Cells Ratio Measurement
C74773	C65047		Laboratory Test Code	EPISQCE	Squamous Cells; Squamous Epithelial Cells	A measurement of the squamous epithelial cells present in a biological specimen.	Squamous Epithelial Cell Count
C74774	C65047		Laboratory Test Code	EPISQTCE	Squamous Transitional Epithelial Cells	A measurement of the squamous transitional epithelial cells present in a biological specimen.	Squamous Transitional Epithelial Cell Count
C92251	C65047		Laboratory Test Code	EPITCE	Transitional Epithelial Cells	A measurement of the transitional epithelial cells present in a biological specimen.	Transitional Epithelial Cells Measurement
C74775	C65047		Laboratory Test Code	EPITUCE	Renal Tubular Epithelial Cells; Tubular Epithelial Cells	A measurement of the tubular epithelial cells present in a biological specimen.	Tubular Epithelial Cell Count
C74855	C65047		Laboratory Test Code	EPO	Erythropoietin; Hematopoietin	A measurement of the erythropoietin hormone in a biological specimen.	Erythropoietin Measurement
C163434	C65047		Laboratory Test Code	EPSTI1	BRESI1; Epithelial Stromal Interaction Protein 1	A measurement of the epithelial stromal interaction protein 1 in a biological specimen.	Epithelial Stromal Interaction 1 Measurement
C204637	C65047		Laboratory Test Code	ERCE	Erythroid Cells	A measurement of the erythroid cells in a biological specimen.	Erythroid Cell Count
C154719	C65047		Laboratory Test Code	ERCECE	Erythroid Cells/Total Cells	A relative measurement (ratio or percentage) of the erythroid cells to total cells (total nucleated cells + erythrocytes + reticulocytes) in a biological specimen.	Erythroid Cells to Total Cells Ratio Measurement
C135415	C65047		Laboratory Test Code	ERCEMIDX	Erythroid Maturation Index	A relative measurement (ratio) of the sum of erythroid maturation phase cells (pool) to the sum of erythroid proliferative phase cells (pool) in a biological specimen.	Erythroid Maturation Index
C135416	C65047		Laboratory Test Code	ERCEMPOL	Erythroid Maturation Pool	A measurement of the erythroid maturation phase cells (polychromatic rubricytes, normochromic rubricytes, and metarubricytes) in a biological specimen.	Erythroid Maturation Pool Count
C154720	C65047		Laboratory Test Code	ERCENC	Erythroid Cells/Nucleated Cells	A relative measurement (ratio or percentage) of the erythroid cells to total nucleated cells in a biological specimen.	Erythroid Cells to Nucleated Cells Ratio Measurement
C135417	C65047		Laboratory Test Code	ERCEPIDX	Erythroid Proliferation Index	A relative measurement (ratio) of the sum of erythroid proliferative phase cells (pool) to the sum of erythroid maturation phase cells (pool) in a biological specimen.	Erythroid Proliferation Index
C135418	C65047		Laboratory Test Code	ERCEPPOL	Erythroid Proliferation Pool	A measurement of the erythroid proliferative phase cells (rubriblasts, prorubricytes, and basophilic rubricytes) in a biological specimen.	Erythroid Proliferation Pool Count
C199891	C65047		Laboratory Test Code	EREG	Epiregulin; EPR	A measurement of the epiregulin in a biological specimen.	Epiregulin Measurement
C186047	C65047		Laboratory Test Code	ERFE	Erythroferrone	A measurement of the erythroferrone in a biological specimen.	Erythroferrone Measurement
C187802	C65047		Laboratory Test Code	ERPCE	Erythroid Precursor Cells; Erythroid Precursors	A measurement of the erythroid precursors in a biological specimen.	Erythroid Precursor Cell Count
C187803	C65047		Laboratory Test Code	ERPCECE	Erythroid Precursor Cells/Total Cells; Erythroid Precursors/Total Cells	A relative measurement (ratio or percentage) of the erythroid precursors to total cells in a biological specimen.	Erythroid Precursor Cells to Total Cells Ratio Measurement
C187804	C65047		Laboratory Test Code	ESCTLPRM	Escitalopram	A measurement of the escitalopram in a biological specimen.	Escitalopram Measurement
C154736	C65047		Laboratory Test Code	ESELECT	E-Selectin	A measurement of total E-selectin in a biological specimen.	E-selectin Measurement
C119273	C65047		Laboratory Test Code	ESELS	sE-selectin; Soluble E-Selectin	A measurement of the soluble E-Selectin in a biological specimen.	Soluble E-Selectin Measurement
C74611	C65047		Laboratory Test Code	ESR	Biernacki Reaction; Erythrocyte Sedimentation Rate	The distance (e.g. millimeters) that red blood cells settle in unclotted blood over a specified unit of time (e.g. one hour).	Erythrocyte Sedimentation Rate Measurement
C184615	C65047		Laboratory Test Code	ESTAZLM	Estazolam	A measurement of the estazolam in a biological specimen.	Estazolam Measurement
C150842	C65047		Laboratory Test Code	ESTFR	Estradiol, Free	A measurement of the unbound estradiol in a biological specimen.	Free Estradiol Measurement
C150843	C65047		Laboratory Test Code	ESTFREST	Estradiol, Free/Estradiol	A relative measurement (ratio or percentage) of unbound estradiol to total estradiol in a biological specimen.	Free Estradiol to Estradiol Ratio Measurement
C112274	C65047		Laboratory Test Code	ESTRCPT	ER; ESR; Estrogen Receptor; Oestrogen Receptor	A measurement of estrogen receptor protein in a biological specimen.	Estrogen Receptor Measurement
C74782	C65047		Laboratory Test Code	ESTRDIOL	Estradiol; Oestradiol	A measurement of the estradiol in a biological specimen.	Estradiol Measurement
C74856	C65047		Laboratory Test Code	ESTRIOL	Estriol; Oestriol	A measurement of the estriol hormone in a biological specimen.	Estriol Measurement
C81963	C65047		Laboratory Test Code	ESTRIOLF	Estriol, Free; Unconjugated Estriol	A measurement of the free estriol in a biological specimen.	Free Estriol Measurement
C147335	C65047		Laboratory Test Code	ESTROGEN	Estrogen; Oestrogen	A measurement of the estrogen hormone in a biological specimen.	Estrogen Measurement
C74857	C65047		Laboratory Test Code	ESTRONE	Estrone; Oestrone	A measurement of the estrone hormone in a biological specimen.	Estrone Measurement
C170584	C65047		Laboratory Test Code	ETG	Ethyl Glucuronide	A measurement of the ethyl glucuronide in a biological specimen.	Ethyl Glucuronide Measurement
C170583	C65047		Laboratory Test Code	ETGETS	Ethyl Glucuronide Ethyl Sulfate	A measurement of the ethyl glucuronide and/or ethyl sulfate in a biological specimen.	Ethyl Glucuronide And Ethyl Sulfate Measurement
C74693	C65047		Laboratory Test Code	ETHANOL	Alcohol; Ethanol	A measurement of the ethanol present in a biological specimen.	Ethanol Measurement
C184616	C65047		Laboratory Test Code	ETHCHVNL	Ethchlorvynol	A measurement of the ethchlorvynol in a biological specimen.	Ethchlorvynol Measurement
C184584	C65047		Laboratory Test Code	ETHESTNL	Ethylestrenol	A measurement of the ethylestrenol in a biological specimen.	Ethylestrenol Measurement
C184617	C65047		Laboratory Test Code	ETHNMATE	Ethinamate	A measurement of the ethinamate in a biological specimen.	Ethinamate Measurement
C102266	C65047		Laboratory Test Code	ETP	Endogenous Thrombin Potential	A measurement of the total concentration of thrombin generated in the presence of a substrate in a plasma or blood sample.	Endogenous Thrombin Potential Measurement
C102263	C65047		Laboratory Test Code	ETPAUC	Endogenous Thrombin Potential Area Under Curve; ETP Area Under Curve	A measurement of the area under the thrombin generation curve.	Endogenous Thrombin Potential Area Under Curve Measurement
C102264	C65047		Laboratory Test Code	ETPLT	Endogenous Thrombin Potential Lag Time; ETP Lag Time	A measurement of time from the start of the thrombin generation test to the point where a predetermined amount of thrombin is generated.	Endogenous Thrombin Potential Lag Time Measurement
C102265	C65047		Laboratory Test Code	ETPLTR	Endogenous Thrombin Potential Lag Time Relative; ETP Lag Time Relative	A relative measurement (ratio or percentage) of time from the start of the thrombin generation test to the point where a predetermined amount of thrombin is generated.	Endogenous Thrombin Potential Lag Time Relative Measurement
C102267	C65047		Laboratory Test Code	ETPPH	Endogenous Thrombin Potential Peak Height; ETP Peak Height	A measurement of the maximum concentration of thrombin generated during a thrombin generation test.	Endogenous Thrombin Potential Peak Height Measurement
C102268	C65047		Laboratory Test Code	ETPPHR	Endogenous Thrombin Potential Peak Height Relative; ETP Peak Height Relative	A relative (ratio or percentage) of the maximum concentration of thrombin generated during a thrombin generation test.	Endogenous Thrombin Potential Peak Height Relative Measurement
C102269	C65047		Laboratory Test Code	ETPTP	Endogenous Thrombin Potential Time to Peak; ETP Time to Peak	A measurement of the time it takes to generate the maximum concentration of thrombin.	Endogenous Thrombin Potential Time to Peak Measurement
C102270	C65047		Laboratory Test Code	ETPTPR	Endogenous Thrombin Potential Time to Peak Relative; ETP Time to Peak Relative	A relative (ratio or percentage) measurement of the time it takes to generate the maximum concentration of thrombin.	Endogenous Thrombin Potential Time to Peak Relative Measurement
C170585	C65047		Laboratory Test Code	ETS	Ethyl Sulfate	A measurement of the ethyl sulfate in a biological specimen.	Ethyl Sulfate Measurement
C176304	C65047		Laboratory Test Code	EUDCA	Epimerized Ursodeoxycholate; Epimerized Ursodeoxycholic Acid	A measurement of the epimerized ursodeoxycholate in a biological specimen.	Epimerized Ursodeoxycholate Measurement
C184640	C65047		Laboratory Test Code	EZOGABIN	Ezogabine	A measurement of the ezogabine in a biological specimen.	Ezogabine Measurement
C82012	C65047		Laboratory Test Code	FABP1	FABP1; Fatty Acid Binding Protein 1; L-FABP; L-Type Fatty Acid-Binding Protein; Liver Fatty Acid-Binding Protein	A measurement of the fatty acid binding protein 1 in a biological specimen.	Fatty Acid Binding Protein 1 Measurement
C106521	C65047		Laboratory Test Code	FABP3	FABP-11; Fatty Acid Binding Protein 3; Fatty Acid Binding Protein 3, Muscle And Heart; Fatty Acid Binding Protein, Heart; H-FABP; Heart-Type Fatty Acid-Binding Protein; M-FABP	A measurement of the fatty acid binding protein 3 in a biological specimen.	Fatty Acid Binding Protein 3 Measurement
C199922	C65047		Laboratory Test Code	FABP4	A-FABP; Adipocyte-Type Fatty Acid-Binding Protein; Fatty Acid Binding Protein 4; Fatty Acid-Binding Protein, Adipocyte	A measurement of the fatty acid binding protein 4 in a biological specimen.	Fatty Acid Binding Protein 4 Measurement
C96626	C65047		Laboratory Test Code	FACTII	Factor II; Prothrombin	A measurement of the coagulation factor II in a biological specimen.	Prothrombin Measurement
C81959	C65047		Laboratory Test Code	FACTIII	Factor III; Soluble CD142; Tissue Factor, CD142	A measurement of the coagulation factor III in a biological specimen.	Factor III Measurement
C98725	C65047		Laboratory Test Code	FACTIX	Christmas Factor; Factor IX	A measurement of the coagulation factor IX in a biological specimen.	Factor IX Measurement
C103395	C65047		Laboratory Test Code	FACTIXA	Christmas Factor Activity; Factor IX Activity	A measurement of the biological activity of coagulation factor IX in a biological specimen.	Factor IX Activity Measurement
C98726	C65047		Laboratory Test Code	FACTV	Factor V; Labile Factor	A measurement of the coagulation factor V in a biological specimen.	Factor V Measurement
C103396	C65047		Laboratory Test Code	FACTVA	Factor V Activity; Labile Factor Activity	A measurement of the biological activity of coagulation factor V in a biological specimen.	Factor V Activity Measurement
C81960	C65047		Laboratory Test Code	FACTVII	Factor VII; Proconvertin; Stable Factor	A measurement of the coagulation factor VII in a biological specimen.	Factor VII Measurement
C103397	C65047		Laboratory Test Code	FACTVIIA	Factor VII Activity; Proconvertin Activity; Stable Factor Activity	A measurement of the biological activity of coagulation factor VII in a biological specimen.	Factor VII Activity Measurement
C81961	C65047		Laboratory Test Code	FACTVIII	Anti-hemophilic Factor; Factor VIII	A measurement of the coagulation factor VIII in a biological specimen.	Factor VIII Measurement
C102271	C65047		Laboratory Test Code	FACTVL	Factor V Leiden	A measurement of the coagulation factor V Leiden in a biological specimen.	Factor V Leiden Measurement
C98799	C65047		Laboratory Test Code	FACTVW	von Willebrand Factor; von Willebrand Factor Antigen	A measurement of the von Willebrand coagulation factor in a biological specimen.	von Willebrand Factor Measurement
C122117	C65047		Laboratory Test Code	FACTVWA	von Willebrand Factor Activity	A measurement of the biological activity of von Willebrand coagulation factor in a biological specimen.	von Willebrand Factor Activity Measurement
C147336	C65047		Laboratory Test Code	FACTVWMU	von Willebrand Factor Multimers	A measurement of the von Willebrand Factor multimers (an aggregate of multiple von Willebrand factor antigens that are held together with non-covalent bonds) in a biological specimen.	von Willebrand Factor Multimers Measurement
C98727	C65047		Laboratory Test Code	FACTX	Factor X	A measurement of the coagulation factor X in a biological specimen.	Factor X Measurement
C122118	C65047		Laboratory Test Code	FACTXA	Factor X Activity	A measurement of the biological activity of coagulation factor X in a biological specimen.	Factor X Activity Measurement
C163435	C65047		Laboratory Test Code	FACTXI	Factor XI	A measurement of the factor XI in a biological specimen.	Factor XI Measurement
C163436	C65047		Laboratory Test Code	FACTXIA	Factor XI Activity; Factor XIa Activity	A measurement of the biological activity of coagulation factor XI in a biological specimen.	Factor XI Activity Measurement
C163437	C65047		Laboratory Test Code	FACTXII	Factor XII	A measurement of the factor XII in a biological specimen.	Factor XII Measurement
C163438	C65047		Laboratory Test Code	FACTXIIA	Factor XII Activity	A measurement of the biological activity of coagulation factor XII in a biological specimen.	Factor XII Activity Measurement
C112277	C65047		Laboratory Test Code	FACTXIII	Factor XIII; Fibrin Stabilizing Factor	A measurement of the coagulation factor XIII in a biological specimen.	Factor XIII Measurement
C102272	C65047		Laboratory Test Code	FACTXIV	Autoprothrombin IIA; Factor XIV; Protein C; Protein C Antigen; Protein C, Inactivator of Coagulation Factors Va and VIIIa	A measurement of the coagulation factor XIV in a biological specimen.	Factor XIV Measurement
C105442	C65047		Laboratory Test Code	FACTXIVA	Factor XIV Activity; Protein C Activity; Protein C Function	A measurement of the biological activity of coagulation factor XIV in a biological specimen.	Factor XIV Activity Measurement
C124341	C65047		Laboratory Test Code	FAI	Free Androgen Index	A measurement of the androgen status in a biological specimen. This is calculated by a mathematical formula that takes into account the total testosterone level, sex hormone binding globulin, and a constant.	Free Androgen Index
C165960	C65047		Laboratory Test Code	FAS	ALPS1A; APT1; Fas Cell Surface Death Receptor; FAS1; FASTM; Soluble CD95; TNF Receptor Superfamily Member 6; TNFRSF6	A measurement of the Fas cell surface death receptor in a biological specimen.	Fas Cell Surface Death Receptor Measurement
C199921	C65047		Laboratory Test Code	FASLG	Fas Ligand; Soluble CD178; Soluble CD95L; Tumor Necrosis Factor Ligand Superfamily Member 6	A measurement of the Fas ligand in a biological specimen.	Fas Ligand Measurement
C96648	C65047		Laboratory Test Code	FAT	Fat	A measurement of the fat in a biological specimen.	Fat Measurement
C80200	C65047		Laboratory Test Code	FATACFR	Free Fatty Acid; Non-Esterified Fatty Acid, Free	A measurement of the total non-esterified fatty acids in a biological specimen.	Non-esterified Fatty Acids Measurement
C80206	C65047		Laboratory Test Code	FATACFRS	Free Fatty Acid, Saturated; Non-esterified Fatty Acid, Saturated	A measurement of the saturated non-esterified fatty acids in a biological specimen.	Saturated Non-esterified Fatty Acids Measurement
C80209	C65047		Laboratory Test Code	FATACFRU	Free Fatty Acid, Unsaturated; Non-esterified Fatty Acid, Unsaturated	A measurement of the unsaturated non-esterified fatty acids in a biological specimen.	Unsaturated Non-esterified Fatty Acids Measurement
C147337	C65047		Laboratory Test Code	FATACVLC	Fatty Acids, Very Long Chain	A measurement of the very long chain fatty acids (containing 22 or more carbon atoms) in a biological specimen.	Very Long Chain Fatty Acids Measurement
C81947	C65047		Laboratory Test Code	FATBODOV	Fat Bodies, Oval	A measurement of the oval-shaped fat bodies, usually renal proximal tubular cells with lipid aggregates in the cytoplasm, in a biological specimen.	Oval Fat Body Measurement
C98728	C65047		Laboratory Test Code	FATDROP	Fat Droplet	A measurement of the triglyceride aggregates within a biological specimen.	Fat Droplet Measurement
C156516	C65047		Laboratory Test Code	FATLVIDX	Fatty Liver Index; FLI	A calculation that indicates the likely presence of fatty liver disease, taking into account waist circumference, body mass index, triglyceride concentrations, and gamma-glutamyltransferase activity. (Bedogni G, Bellentani S, Miglioli L, Masutti F, Passalacqua M, Castiglione A, Tiribelli C. The Fatty Liver Index: a simple and accurate predictor of hepatic steatosis in the general population. BMC Gastroenterol. 2006 Nov 2;6:33.)	Fatty Liver Index
C187806	C65047		Laboratory Test Code	FATTOTSD	Fat/Total Solids	A relative measurement (ratio or percentage) of the fat to total solid material in a biological specimen (for example a stool specimen).	Fats to Total Solids Ratio Measurement
C172507	C65047		Laboratory Test Code	FBNCTCE	Fibronectin, Cellular; Insoluble Fibronectin	A measurement of the cellular fibronectin in a biological specimen.	Cellular Fibronectin Measurement
C92786	C65047		Laboratory Test Code	FBNCTFT	Fibronectin, Fetal	A measurement of the fetal isoform of fibronectin in a biological specimen	Fetal Fibronectin Test
C177951	C65047		Laboratory Test Code	FBNCTMFT	Fibronectin, Maternal + Fetal	A measurement of the maternal plasma fibronectin and fetal fibronectin in a biological specimen.	Maternal and Fetal Fibronectin Measurement
C172508	C65047		Laboratory Test Code	FBNCTPL	Fibronectin, Plasma; Soluble Fibronectin	A measurement of the plasma fibronectin in a biological specimen.	Plasma Fibronectin Measurement
C105443	C65047		Laboratory Test Code	FBRTST	FibroSURE Score; FibroTest Score	A biomarker test that measures liver pathology through the assessment of a six-parameter blood test (for Alpha-2-macroglobulin, Haptoglobin, Apolipoprotein A1, Gamma-glutamyl transpeptidase (GGT), Total bilirubin, and Alanine aminotransferase (ALT)), taking into account the age and sex of the patient.	FibroTest Score Measurement
C103398	C65047		Laboratory Test Code	FCTVIIAA	Factor VIIa Activity	A measurement of the biological activity of coagulation factor VIIa in a biological specimen.	Factor VIIa Activity Measurement
C103399	C65047		Laboratory Test Code	FCTVIIIA	Anti-hemophilic Factor Activity; Factor VIII Activity; Factor VIII:C	A measurement of the biological activity of coagulation factor VIII in a biological specimen.	Factor VIII Activity Measurement
C174313	C65047		Laboratory Test Code	FCTXIIIA	Factor XIII Activity	A measurement of the biological activity of coagulation factor XIII in a biological specimen.	Factor XIII Activity Measurement
C82013	C65047		Laboratory Test Code	FDP	Fibrin Degradation Products	A measurement of the fibrin degradation products in a biological specimen.	Fibrin Degradation Products Measurement
C114219	C65047		Laboratory Test Code	FECA	Fractional Calcium Excretion	A measurement of the fractional excretion of calcium that is computed based upon the concentrations of calcium and creatinine in both blood and urine.	Fractional Excretion of Calcium
C114220	C65047		Laboratory Test Code	FECL	Fractional Chloride Excretion	A measurement of the fractional excretion of chloride that is computed based upon the concentrations of chloride and creatinine in both blood and urine.	Fractional Excretion of Chloride
C114222	C65047		Laboratory Test Code	FEK	Fractional Potassium Excretion	A measurement of the fractional excretion of potassium that is computed based upon the concentrations of potassium and creatinine in both blood and urine.	Fractional Excretion of Potassium
C122119	C65047		Laboratory Test Code	FEMG	Fractional Magnesium Excretion	A measurement of the fractional excretion of magnesium that is computed based upon the concentrations of magnesium and creatinine in both blood and urine.	Fractional Excretion of Magnesium
C184525	C65047		Laboratory Test Code	FEN3M	3-Methylfentanyl	A measurement of the 3-methylfentanyl in a biological specimen.	3-Methylfentanyl Measurement
C107435	C65047		Laboratory Test Code	FENA	Fractional Sodium Excretion	A measurement of the fractional excretion of sodium that is computed based upon the concentrations of sodium and creatinine in both blood and urine.	Fractional Excretion of Sodium
C184528	C65047		Laboratory Test Code	FENACE	Acetyl Fentanyl; Acetylfentanyl	A measurement of the acetylfentanyl in a biological specimen.	Acetylfentanyl Measurement
C184537	C65047		Laboratory Test Code	FENAM	Alpha-Methylfentanyl	A measurement of the alpha-methylfentanyl in a biological specimen.	Alpha-Methylfentanyl Measurement
C184530	C65047		Laboratory Test Code	FENBOHT	Beta-Hydroxythiofentanyl	A measurement of the beta-hydroxythiofentanyl in a biological specimen.	Beta-Hydroxythiofentanyl Measurement
C184533	C65047		Laboratory Test Code	FENBUT	Butyrfentanyl; Butyryl Fentanyl; Butyrylfentanyl	A measurement of the butyrylfentanyl in a biological specimen.	Butyrylfentanyl Measurement
C184618	C65047		Laboratory Test Code	FENCMFMN	Fencamfamin; Fencamfamine	A measurement of the fencamfamin in a biological specimen.	Fencamfamin Measurement
C184619	C65047		Laboratory Test Code	FENFLRMN	Fenfluramine	A measurement of the fenfluramine in a biological specimen.	Fenfluramine Measurement
C184541	C65047		Laboratory Test Code	FENFUR	Furanyl Fentanyl; Furanylfentanyl	A measurement of the furanylfentanyl in a biological specimen.	Furanylfentanyl Measurement
C184558	C65047		Laboratory Test Code	FENPF	Para-Fluorofentanyl	A measurement of the para-fluorofentanyl in a biological specimen.	Para-Fluorofentanyl Measurement
C184620	C65047		Laboratory Test Code	FENPRPRX	Fenproporex	A measurement of the fenproporex in a biological specimen.	Fenproporex Measurement
C147338	C65047		Laboratory Test Code	FENTANYL	Fentanyl	A measurement of the fentanyl in a biological specimen.	Fentanyl Measurement
C184607	C65047		Laboratory Test Code	FENVAL	Valeryl Fentanyl; Valerylfentanyl	A measurement of the valerylfentanyl in a biological specimen.	Valerylfentanyl Measurement
C147339	C65047		Laboratory Test Code	FEP	Erythrocyte Protoporphyrin, Free	A measurement of the free erythrocyte protoporphyrin (zinc bound plus unbound protoporphyrin) in a biological specimen.	Free Erythrocyte Protoporphyrin Measurement
C114221	C65047		Laboratory Test Code	FEPI	Fractional Inorganic Phosphate Excretion; Fractional Phosphorus Excretion	A measurement of the fractional excretion of phosphorus that is computed based upon the concentrations of phosphorus and creatinine in both blood and urine.	Fractional Excretion of Phosphate
C74737	C65047		Laboratory Test Code	FERRITIN	Ferritin	A measurement of the ferritin in a biological specimen.	Ferritin Measurement
C154727	C65047		Laboratory Test Code	FGF19	FGF 19; Fibroblast Growth Factor 19	A measurement of the fibroblast growth factor 19 in a biological specimen.	Fibroblast Growth Factor 19 Measurement
C112280	C65047		Laboratory Test Code	FGF21	FGF 21; Fibroblast Growth Factor 21	A measurement of the fibroblast growth factor 21 in a biological specimen.	Fibroblast Growth Factor 21 Measurement
C96650	C65047		Laboratory Test Code	FGF23	Fibroblast Growth Factor 23; Phosphatonin	A measurement of the total fibroblast growth factor 23 in a biological specimen.	Fibroblast Growth Factor 23 Measurement
C135419	C65047		Laboratory Test Code	FGF23C	Fibroblast Growth Factor 23, C-Terminal	A measurement of the C-terminal fibroblast growth factor 23 in a biological specimen.	C-Terminal Fibroblast Growth Factor 23 Measurement
C135420	C65047		Laboratory Test Code	FGF23I	Fibroblast Growth Factor 23, Intact	A measurement of the intact fibroblast growth factor 23 in a biological specimen.	Intact Fibroblast Growth Factor 23 Measurement
C130162	C65047		Laboratory Test Code	FGF9	FGF 9; Fibroblast Growth Factor 9	A measurement of the fibroblast growth factor 9 in a biological specimen.	Fibroblast Growth Factor 9 Measurement
C82014	C65047		Laboratory Test Code	FGFBF	FGF2; Fibroblast Growth Factor Basic Form	A measurement of the basic form of fibroblast growth factor in a biological specimen.	Fibroblast Growth Factor Basic Form Measurement
C138330	C65047		Laboratory Test Code	FIB4IDX	FIB4; Fibrosis-4 Index	A scoring system that evaluates liver pathology through the assessment of multiple blood test parameters, taking into account age, alanine aminotransferase, aspartate aminotransferase, and platelet count.	Fibrosis-4 Score
C209590	C65047		Laboratory Test Code	FIBERV	Vegetable Fiber; Vegetable Fibers	A measurement of the vegetable fiber in a biological specimen.	Vegetable Fiber Measurement
C189498	C65047		Laboratory Test Code	FIBMONO	Fibrin Monomer; Soluble Fibrin Monomer	A measurement of the fibrin monomer in a biological specimen.	Fibrin Monomer Measurement
C64606	C65047		Laboratory Test Code	FIBRINO	Fibrinogen; Fibrinogen Antigen	A measurement of the total fibrinogen (functional and non-functional) in a biological specimen.	Fibrinogen Measurement
C139075	C65047		Laboratory Test Code	FIBRINOF	Fibrinogen, Functional	A measurement of the functional fibrinogen (fibrinogen that is capable of being converted to fibrin) in a biological specimen.	Functional Fibrinogen Measurement
C198283	C65047		Laboratory Test Code	FICOLIN3	FCN3; Ficolin-3	A measurement of the ficolin-3 in a biological specimen.	Ficolin-3 Measurement
C38082	C65047		Laboratory Test Code	FIO2	Fraction of Inspired Oxygen	A measurement of the volumetric fraction of oxygen in the inhaled gas.	Fraction of Inspired Oxygen
C170588	C65047		Laboratory Test Code	FIXAAC	Factor IX Activity Actual/Control; Factor IX Activity Actual/Factor IX Activity Control; Factor IX Activity Actual/Normal	A relative measurement (ratio or percentage) of the biological activity of factor IX dependent coagulation in a subject's specimen when compared to the same activity in a control specimen.	Factor IX Activity Actual to Control Ratio Measurement
C139081	C65047		Laboratory Test Code	FLNTRZPM	Flunitrazepam	A measurement of the flunitrazepam present in a biological specimen.	Flunitrazepam Measurement
C75373	C65047		Laboratory Test Code	FLRZPM	Flurazepam	A measurement of the flurazepam present in a biological specimen.	Flurazepam Measurement
C174307	C65047		Laboratory Test Code	FLT3	FMS-like Receptor Tyrosine Kinase 3; Soluble CD135	A measurement of the FMS-like receptor tyrosine kinase 3 in a biological specimen.	FMS-like Receptor Tyrosine Kinase 3 Measurement
C174306	C65047		Laboratory Test Code	FLT3L	FMS-like Tyrosine Kinase 3 Ligand	A measurement of the FMS-like tyrosine kinase 3 ligand in a biological specimen.	FMS-like Tyrosine Kinase 3 Ligand Measurement
C171508	C65047		Laboratory Test Code	FLUDOUTE	Fluid Output, Estimated	An estimate of the total volume of fluid discharged over a set period of time.	Estimated Fluid Output
C171455	C65047		Laboratory Test Code	FLUIDOUT	Fluid Output	A measurement of the total volume of fluid discharged over a set period of time.	Fluid Output
C122120	C65047		Laboratory Test Code	FLUORIDE	Fluoride	A measurement of the fluoride in a biological specimen.	Fluoride Measurement
C158219	C65047		Laboratory Test Code	FLUOXTN	Fluoxetine	A measurement of the fluoxetine drug present in a biological specimen.	Fluoxetine Measurement
C187816	C65047		Laboratory Test Code	FLUOXTNN	Norfluoxetine	A measurement of the norfluoxetine in a biological specimen.	Norfluoxetine Measurement
C177980	C65047		Laboratory Test Code	FLUPHZN	Fluphenazine	A measurement of the fluphenazine in a biological specimen.	Fluphenazine Measurement
C147340	C65047		Laboratory Test Code	FLUVOXAM	Fluvoxamine	A measurement of the fluvoxamine present in a biological specimen.	Fluvoxamine Measurement
C184585	C65047		Laboratory Test Code	FLXMSTRN	Fluoxymesterone	A measurement of the fluoxymesterone in a biological specimen.	Fluoxymesterone Measurement
C186048	C65047		Laboratory Test Code	FNZPMAOM	Flunitrazepam and/or Metabolites	A measurement of the flunitrazepam and/or its metabolite(s) present in a biological specimen, for an assay that can measure both flunitrazepam and its metabolites.	Flunitrazepam and/or Metabolites Measurement
C132367	C65047		Laboratory Test Code	FOLHMRNA	Folate Hydrolase mRNA	A measurement of the folate hydrolase mRNA in a biological specimen.	Folate Hydrolase mRNA Measurement
C204649	C65047		Laboratory Test Code	FORMALD	Formaldehyde; Formic Aldehyde; Methanal	A measurement of the formaldehyde in a specimen.	Formaldehyde Measurement
C147341	C65047		Laboratory Test Code	FPP	Protoporphyrin, Free	A measurement of the free protoporphyrin (unbound to iron in hemoglobin) in a biological specimen.	Free Protoporphyrin Measurement
C161349	C65047		Laboratory Test Code	FRFEABS	Fractional Iron Absorption	A relative measurement (ratio or percentage) of the iron absorbed into tissue or cells to the total available iron.	Fractional Iron Absorption
C186049	C65047		Laboratory Test Code	FRNG	Glycated Ferritin	A measurement of the glycated ferritin in a biological specimen.	Glycated Ferritin Measurement
C186050	C65047		Laboratory Test Code	FRNGFRN	Glycated Ferritin/Ferritin	A relative measurement (ratio or percentage) of the glycated ferritin to total ferritin in a biological specimen.	Glycated Ferritin to Ferritin Ratio Measurement
C209591	C65047		Laboratory Test Code	FRNGO	Glycosylated Ferritin	A measurement of the glycosylated ferritin in a biological specimen.	Glycosylated Ferritin Measurement
C209592	C65047		Laboratory Test Code	FRNGOFRN	Glycosylated Ferritin/Ferritin	A relative measurement (ratio or percentage) of the glycosylated ferritin to total ferritin in a biological specimen.	Glycosylated Ferritin to Ferritin Ratio Measurement
C172521	C65047		Laboratory Test Code	FRTNHC	Apoferritin; Ferritin Heavy Chain; FTH; FTH1	A measurement of the ferritin heavy chain in a biological specimen.	Ferritin Heavy Chain Measurement
C172522	C65047		Laboratory Test Code	FRTNLC	Ferritin Light Chain; FTL; L Apoferritin	A measurement of the ferritin light chain in a biological specimen.	Ferritin Light Chain Measurement
C74678	C65047		Laboratory Test Code	FRUCT	Fructosamine; Glycated Serum Protein	A measurement of the fructosamine in a biological specimen.	Fructosamine Measurement
C147342	C65047		Laboratory Test Code	FRUCTOSE	Fructose	A measurement of the fructose in a biological specimen.	Fructose Measurement
C161350	C65047		Laboratory Test Code	FRUMCRTP	Fructosamine Corrected for Total Protein	A measurement of fructosamine, which has been corrected for total protein, in a biological specimen.	Fructosamine Corrected for Total Protein Measurement
C186051	C65047		Laboratory Test Code	FRZPMAOM	Flurazepam and/or Metabolites	A measurement of the flurazepam and/or its metabolite(s) present in a biological specimen, for an assay that can measure both flurazepam and its metabolites.	Flurazepam and/or Metabolites Measurement
C74783	C65047		Laboratory Test Code	FSH	Follicle Stimulating Hormone	A measurement of the follicle stimulating hormone (FSH) in a biological specimen.	Follicle Stimulating Hormone Measurement
C154813	C65047		Laboratory Test Code	FUNGI	Fungi; Fungus	A measurement of the fungi in a biological specimen.	Fungi Measurement
C147343	C65047		Laboratory Test Code	FUNGIFIL	Fungi, Filamentous	A measurement of the filamentous fungi in a biological specimen.	Filamentous Fungi Count
C147344	C65047		Laboratory Test Code	FUNGYLK	Fungi, Yeast-Like	A measurement of the yeast-like fungi in a biological specimen.	Yeast-Like Fungi Count
C184586	C65047		Laboratory Test Code	FURAZBL	Furazabol	A measurement of the furazabol in a biological specimen.	Furazabol Measurement
C170587	C65047		Laboratory Test Code	FVAAC	Factor V Activity Actual/Control; Factor V Activity Actual/Factor V Activity Control; Factor V Activity Actual/Normal	A relative measurement (ratio or percentage) of the biological activity of factor V dependent coagulation in a subject's specimen when compared to the same activity in a control specimen.	Factor V Activity Actual to Control Ratio Measurement
C170589	C65047		Laboratory Test Code	FVIIAAC	Factor VII Activity Actual/Control; Factor VII Activity Actual/Factor VII Activity Control; Factor VII Activity Actual/Normal	A relative measurement (ratio or percentage) of the biological activity of factor VII dependent coagulation in a subject's specimen when compared to the same activity in a control specimen.	Factor VII Activity Actual to Control Ratio Measurement
C147345	C65047		Laboratory Test Code	FVIIIAAC	Factor VIII Activity Actual/Control; Factor VIII Activity Actual/Factor VIII Activity Control; Factor VIII Activity Actual/Normal	A relative measurement (ratio or percentage) of the biological activity of factor VIII dependent coagulation in a subject's specimen when compared to the same activity in a control specimen.	Factor VIII Activity Actual to Control Ratio Measurement
C170586	C65047		Laboratory Test Code	FXAAC	Factor X Activity Actual/Control; Factor X Activity Actual/Factor X Activity Control; Factor X Activity Actual/Normal	A relative measurement (ratio or percentage) of the biological activity of factor X dependent coagulation in a subject's specimen when compared to the same activity in a control specimen.	Factor X Activity Actual/Control Ratio Measurement
C170590	C65047		Laboratory Test Code	FXAC	Factor X Actual/Control; Factor X Actual/Normal	A relative measurement (ratio or percentage) of the factor X in a subject's specimen when compared to a control specimen.	Factor X Actual to Control Ratio Measurement
C147346	C65047		Laboratory Test Code	FXIVAAC	Factor XIV Activity Actual/Control; Factor XIV Activity Actual/Factor XIV Activity Control; Factor XIV Activity Actual/Normal; Protein C Activity Actual/Control	A relative measurement (ratio or percentage) of the biological activity of factor XIV dependent coagulation in a subject's specimen when compared to the same activity in a control specimen.	Factor XIV Activity Actual to Control Ratio Measurement
C170594	C65047		Laboratory Test Code	FXIVAC	Factor XIV Actual/Control; Protein C Actual/Control	A relative measurement (ratio or percentage) of the factor XIV in a subject's specimen when compared to a control specimen.	Factor XIV Actual to Control Ratio Measurement
C80184	C65047		Laboratory Test Code	G6PD	Glucose-6-Phosphate Dehydrogenase	A measurement of the glucose-6-phosphate dehydrogenase in a biological specimen.	Glucose-6-Phosphate Dehydrogenase Measurement
C139065	C65047		Laboratory Test Code	G6PDA	Glucose-6-Phosphate Dehydrogenase Act	A measurement of the biological activity of glucose-6-phosphate dehydrogenase in a biological specimen.	Glucose-6-Phosphate Dehydrogenase Activity
C132368	C65047		Laboratory Test Code	G6PDRBC	G6PD-Deficient Erythrocytes	A measurement of the glucose-6-phosphate dehydrogenase deficient erythrocytes in a biological specimen.	G6PD-Deficient Erythrocytes Count
C132369	C65047		Laboratory Test Code	G6PDRBRB	G6PD-Deficient Erythrocytes/Erythrocytes	A relative measurement (ratio or percentage) of G6PD-deficient erythrocytes to total erythrocytes in a biological specimen.	G6PD-Deficient Erythrocytes to Erythrocytes Ratio Measurement
C189502	C65047		Laboratory Test Code	GAA	Acid Alpha-Glucosidase; Acid Maltase; Alpha-1,4-glucosidase	A measurement of the acid alpha-glucosidase in a biological specimen.	Acid Alpha-Glucosidase Measurement
C82015	C65047		Laboratory Test Code	GAD1	Glutamic Acid Decarboxylase 1; Glutamic Acid Decarboxylase 67	A measurement of the glutamic acid decarboxylase 1 in a biological specimen.	Glutamic Acid Decarboxylase 1 Measurement
C82016	C65047		Laboratory Test Code	GAD2	Glutamic Acid Decarboxylase 2; Glutamic Acid Decarboxylase 65	A measurement of the glutamic acid decarboxylase 2 in a biological specimen.	Glutamic Acid Decarboxylase 2 Measurement
C81308	C65047		Laboratory Test Code	GAL	Galactose	A measurement of the galactose in a biological specimen.	Galactose Measurement
C186052	C65047		Laboratory Test Code	GAL1PHOS	Galactose-1-Phosphate	A measurement of the galactose-1-phosphate in a biological specimen.	Galactose-1-Phosphate Measurement
C81251	C65047		Laboratory Test Code	GAL1PUT	G1PUT; Galactose 1 Phosphate Uridyl Transferase; Galactose-1-Phos Uridylyltransferase; Galactose-1-Phosphate Uridylyltransferase; GALT	A measurement of the galactose-1-phosphate uridyltransferase in a biological specimen.	Galactose-1-Phosphate Uridyltransferase Measurement
C80182	C65047		Laboratory Test Code	GALANIN	Galanin	A measurement of the galanin in a biological specimen.	Galanin Measurement
C163439	C65047		Laboratory Test Code	GALM	Galactose Mutarotase	A measurement of the galactose mutarotase in a biological specimen.	Galactose Mutarotase Measurement
C154766	C65047		Laboratory Test Code	GAMBTAC	GABA; Gamma-aminobutyrate; Gamma-Aminobutyric Acid	A measurement of the gamma-aminobutyric acid in a biological specimen.	Gamma-Aminobutyric Acid Measurement
C184524	C65047		Laboratory Test Code	GAPDH	GAPDH; Glyceraldehyde 3 Phosphate Dehydrogenase; Glyceraldehyde-3-Phosphate Dehydrogenase	A measurement of the glyceraldehyde-3-phosphate dehydrogenase in a biological specimen.	Glyceraldehyde-3-Phosphate Dehydrogenase Measurement
C74858	C65047		Laboratory Test Code	GASTRIN	Gastrin	A measurement of the gastrin hormone in a biological specimen.	Gastrin Measurement
C116211	C65047		Laboratory Test Code	GATCPHRL	Gamma Tocopherol	A measurement of the gamma tocopherol in a biological specimen.	Gamma Tocopherol Measurement
C209593	C65047		Laboratory Test Code	GB3	Gb3; GL-3; GL3; Globotriaosylceramide; sCD77; Soluble CD77	A measurement of the globotriaosylceramide in a biological specimen.	Globotriaosylceramide Measurement
C184520	C65047		Laboratory Test Code	GBA	Beta-Glucocerebrosidase; GBA; Glucocerebrosidase Beta; Glucosylceramidase; Glucosylceramidase Beta	A measurement of the glucosylceramidase beta in a biological specimen.	Glucosylceramidase Beta Measurement
C163440	C65047		Laboratory Test Code	GBP1	Guanylate Binding Protein 1	A measurement of the guanylate binding protein 1 in a biological specimen.	Guanylate Binding Protein 1 Measurement
C163441	C65047		Laboratory Test Code	GBP2	Guanylate Binding Protein 2	A measurement of the guanylate binding protein 2 in a biological specimen.	Guanylate Binding Protein 2 Measurement
C176305	C65047		Laboratory Test Code	GCDCA	Glycochenodeoxycholate; Glycochenodeoxycholic Acid	A measurement of the glycochenodeoxycholate in a biological specimen.	Glycochenodeoxycholate Measurement
C176299	C65047		Laboratory Test Code	GCHT	Cholylglycine; Glycocholate; Glycocholic Acid	A measurement of the glycocholate in a biological specimen.	Glycocholate Measurement
C82018	C65047		Laboratory Test Code	GCSF	Granulocyte Colony Stimulating Factor	A measurement of the granulocyte colony stimulating factor in a biological specimen.	Granulocyte Colony Stimulating Factor Measurement
C225600	C65047		Laboratory Test Code	GD2C16_0	Ganglioside GD2 Lipoform C16:0	A measurement of the ganglioside GD2 lipoform C16:0 in a biological specimen.	Ganglioside GD2 Lipoform C16:0 Measurement
C225601	C65047		Laboratory Test Code	GD2C18_0	Ganglioside GD2 Lipoform C18:0	A measurement of the ganglioside GD2 lipoform C18:0 in a biological specimen.	Ganglioside GD2 Lipoform C18:0 Measurement
C225602	C65047		Laboratory Test Code	GD2C20_0	Ganglioside GD2 Lipoform C20:0	A measurement of the ganglioside GD2 lipoform C20:0 in a biological specimen.	Ganglioside GD2 Lipoform C20:0 Measurement
C225603	C65047		Laboratory Test Code	GD2C22_0	Ganglioside GD2 Lipoform C22:0	A measurement of the ganglioside GD2 lipoform C22:0 in a biological specimen.	Ganglioside GD2 Lipoform C22:0 Measurement
C150845	C65047		Laboratory Test Code	GDA	Guanase; Guanine Aminohydrolase; Guanine Deaminase	A measurement of the guanine deaminase in a biological specimen.	Guanine Deaminase Measurement
C135422	C65047		Laboratory Test Code	GDF11	BMP-11; Bone Morphogenetic Protein 11; Growth Differentiation Factor 11	A measurement of the growth differentiation factor 11 in a biological specimen.	Growth Differentiation Factor 11 Measurement
C181406	C65047		Laboratory Test Code	GDF15	GDF-15; Growth Differentiation Factor 15; Macrophage Inhibitory Cytokine-1; MIC-1	A measurement of the growth differentiation factor 15 in a biological specimen.	Growth Differentiation Factor 15 Measurement
C199913	C65047		Laboratory Test Code	GDF2	BMP-9; BMP9; Bone Morphogenetic Protein 9; Growth Differentiation Factor 2; Growth/Differentiation Factor 2	A measurement of the growth differentiation factor 2 in a biological specimen.	Growth Differentiation Factor 2 Measurement
