Code	Codelist Code	Codelist Extensible (Yes/No)	Codelist Name	CDISC Submission Value	CDISC Synonym(s)	CDISC Definition	NCI Preferred Term
C202456	C120531		Non-Neoplastic Finding Type	ABERRANT CRANIOPHARYNGEAL STRUCTURES		Proliferation of acinar, tubular, or fusiform cells or structures in the neurohypophysis, or between the pars intermedia and pars nervosa. (INHAND)	Aberrant Craniopharyngeal Structures
C26686	C120531		Non-Neoplastic Finding Type	ABSCESS		An inflammatory response represented by a focal collection of leukocytes (predominantly neutrophils) that can be encapsulated.	Abscess
C120859	C120531		Non-Neoplastic Finding Type	ACCESSORY TISSUE		A supernumerary tissue in addition to normal tissues.	Accessory Tissue
C120860	C120531		Non-Neoplastic Finding Type	ACCUMULATION		An increase of substance (e.g., proteinaceous fluid and glycogen) in either the intracellular space, extracellular space, or within a hollow organ or structure.	Accumulation
C132483	C120531		Non-Neoplastic Finding Type	ACCUMULATION, ADIPOCYTES		An increase in adipocytes in a given tissue, within which they may occur but don't normally accumulate. Accumulation may be accompanied by a disruption of the adjacent tissue.	Adipocyte Accumulation
C174382	C120531		Non-Neoplastic Finding Type	ACCUMULATION, FIBRIN		The presence of fibrin in a given tissue or body cavity.	Fibrin Accumulation
C181557	C120531		Non-Neoplastic Finding Type	ACCUMULATION, HYALINE DROPLETS	Increased Hyaline Droplets;HYALINE DROPLETS	An increase in eosinophilic cytoplasmic droplets that appear glassy or translucent.	Hyaline Droplet Accumulation
C202459	C120531		Non-Neoplastic Finding Type	ACCUMULATION, LAMINAR, SCHWANN CELLS		Segmental demyelination and remyelination leading to the accumulation of supernumerary Schwann cells and collagen in concentric layers that surround axons of long nerves. (INHAND)	Schwann Cell Laminar Accumulation
C202460	C120531		Non-Neoplastic Finding Type	ACCUMULATION, MATRIX		An increase in amorphous, paucicellular extracellular matrix in a given tissue or body cavity.	Matrix Accumulation
C6996	C120531		Non-Neoplastic Finding Type	ADENOMYOSIS		The growth of endometrial tissue inside the muscular wall of the uterus.	Uterine Corpus Adenomyosis
C120861	C120531		Non-Neoplastic Finding Type	ADENOSIS		The presence of small collections of epithelial cells with or without microlumens in the stroma adjacent to ducts or acini in glandular tissues.	Adenosis
C54685	C120531		Non-Neoplastic Finding Type	ADHESION		A fibrinous or fibrous connection between two surfaces or tissues, connecting tissues or organs that are not normally attached.	Tissue Adhesion
C174378	C120531		Non-Neoplastic Finding Type	ADIPOSE TISSUE, DECREASED		Decrease in the amount of adipose tissue.	Decreased Adipose Tissue
C174379	C120531		Non-Neoplastic Finding Type	ADIPOSE TISSUE, INCREASED		Increase in the amount of adipose tissue.	Increased Adipose Tissue
C120862	C120531		Non-Neoplastic Finding Type	ADNEXAL DYSPLASIA		Abnormal development of the adnexal appendages of the skin. (INHAND)	Adnexal Dysplasia
C62344	C120531		Non-Neoplastic Finding Type	AGGREGATE	Aggregates;Aggregation	A collection of cells or particles forming a cohesive mass or cluster.	Aggregation
C176398	C120531		Non-Neoplastic Finding Type	AGGREGATES, INCREASED		Increase in the number or size of aggregates.	Increased Cellular Aggregates
C120863	C120531		Non-Neoplastic Finding Type	ALPHA 2U-GLOBULIN NEPHROPATHY		Increase in eosinophilic cytoplasmic droplets of alpha 2u-globulin in the S2 segment of the proximal tubules in the cortex with exfoliation of cells, an increase in mitotic figures in affected portions of the proximal tubules, tubular basophilia in some cases, and formation of granular casts at the junction of the inner and outer stripes of the medulla. (INHAND)	Alpha 2u-Globulin Nephropathy
C158332	C120531		Non-Neoplastic Finding Type	ALVEOLAR MACROPHAGES, INCREASED	MACROPHAGES INTRA-ALVEOLAR;MACROPHAGE;PIGMENTED MACROPHAGE	Increased number or size of alveolar macrophages in terminal air spaces. (Nikula KJ, McCartney JE, McGovern T, Miller GK, Odin M, Pino MV, Reed MD. STP position paper: interpreting the significance of increased alveolar macrophages in rodents following inhalation of pharmaceutical materials. Toxicol Pathol. 2014;42(3):472-86.)	Increased Alveolar Macrophages
C2868	C120531		Non-Neoplastic Finding Type	AMYLOID	Amyloidosis	An accumulation of amyloid protein.	Amyloidosis
C26693	C120531		Non-Neoplastic Finding Type	ANEURYSM		Localized dilatation of a blood vessel wall.	Aneurysm
C225434	C120531		Non-Neoplastic Finding Type	ANGIECTASIS		Dilatation of the blood vessels or endothelial lined sinusoids.	Angiectasis
C9440	C120531		Non-Neoplastic Finding Type	ANOMALY		A marked deviation from the normal morphology of a tissue or organ frequently related to congenital defects or disorders. An anomaly may or may not be perceived as a problem condition and may not affect the health status or/and the survival of the animal or species.	Abnormality
C120864	C120531		Non-Neoplastic Finding Type	APLASIA	Agenesis	A congenital abnormality resulting in the absence of an anatomical structure. (NCI)	Agenesis
C163720	C120531		Non-Neoplastic Finding Type	APLASIA/HYPOPLASIA		A finding that generally has features of aplasia and hypoplasia.	Aplasia/Hypoplasia
C17557	C120531		Non-Neoplastic Finding Type	APOPTOSIS		A form of programmed cell death triggered by internal or external signals that results in a series of characteristic morphological changes.	Apoptosis
C176399	C120531		Non-Neoplastic Finding Type	APOPTOSIS, INCREASED		Increase in the amount of apoptosis.	Increased Apoptosis
C163721	C120531		Non-Neoplastic Finding Type	APOPTOSIS/SINGLE CELL NECROSIS		A finding that generally has features of apoptosis and single cell necrosis.	Apoptosis and Single Cell Necrosis
C161569	C120531		Non-Neoplastic Finding Type	ARTERIOLAR LOOP, PRE-RETINAL		Arteriole emerging from the central retinal artery, coursing through the posterior vitreous and reconnecting to the inner retina. (INHAND)	Pre-Retinal Arteriolar Loop
C75603	C120531		Non-Neoplastic Finding Type	ARTIFACT		A structure or appearance that is not naturally present, but has been introduced though manipulation.	Artifact
C161540	C120531		Non-Neoplastic Finding Type	ASTROCYTE SWELLING		Intracytoplasmic accumulation of fluid in an astrocyte.	Astrocyte Swelling
C161541	C120531		Non-Neoplastic Finding Type	ASTROCYTE SWELLING/VACUOLATION		A finding that generally has features of astrocyte swelling and vacuolation.	Astrocyte Swelling And Vacuolation
C120865	C120531		Non-Neoplastic Finding Type	ASTROCYTOSIS	Astrogliosis;Gemistocytosis	Reactive astrocytic proliferation often associated with degenerative, inflammatory or neoplastic changes in the central nervous system.	Experimental Organism Astrocytosis
C2888	C120531		Non-Neoplastic Finding Type	ATELECTASIS		The partial or total collapse of alveoli and/or airways.	Atelectasis
C35768	C120531		Non-Neoplastic Finding Type	ATHEROSCLEROSIS		A degenerative change that occurs within the tunica intima of large and small arteries and is initially characterized by progressive accumulation of lipids, lipoproteins, and free cholesterol in the intima and media, with accumulation of macrophages and lymphocytes within and around the arterial wall, and later characterized by regions of intimal thickening composed of smooth muscle cells, mucopolysaccharides, and hypocellular collagen deposits. (INHAND)	Atherosclerosis
C158338	C120531		Non-Neoplastic Finding Type	ATRETIC FOLLICLES, INCREASED		Increased number of atretic follicles.	Increased Atretic Follicles
C79748	C120531		Non-Neoplastic Finding Type	ATROPHY	ATROPHY FAT	A decrease in size of organ, tissue or cell. (INHAND)	Atrophy
C161545	C120531		Non-Neoplastic Finding Type	ATTENUATION, ENDOTHELIUM		Individual endothelial cells flatten and spread out to cover spatial defects created by endothelial cell loss. (INHAND)	Endothelial Attenuation
C184725	C120531		Non-Neoplastic Finding Type	ATTENUATION, EPITHELIUM		Flattening or spreading out of epithelial cells to cover spatial defects.	Epithelium Attenuation
C120866	C120531		Non-Neoplastic Finding Type	ATYPICAL RESIDUAL BODIES		Abnormally large, misshapen and/or clumped vacuoles containing cell debris in the testis, or present in stages of spermatogenesis when not normally seen.	Atypical Residual Bodies
C99673	C120531		Non-Neoplastic Finding Type	AUTOLYSIS		Post-mortem degradation of cells and tissues.	Autolysis
C32167	C120531		Non-Neoplastic Finding Type	AUTOPHAGIC VACUOLES		Vacuoles containing segregated cytoplasmic organelles or contents, characterized by intracytoplasmic globules surrounded by a thin, clear halo. (INHAND)	Autophagosome
C120867	C120531		Non-Neoplastic Finding Type	BACTERIA	Bacterium	The presence of bacteria.	Bacteria Present
C34414	C120531		Non-Neoplastic Finding Type	BASOPHILIA	BASOPHILIC TUBULE;BASOPHILIC TUBULES;BASOPHILIA TUBULE(S)	A blue-purple tinctorial change associated with staining with basic dyes.	Basophilia
C138968	C120531		Non-Neoplastic Finding Type	BASOPHILIC FOCUS		A localized group of cells that exhibit some type of cytologic alteration resulting in basophilia.	Basophilic Focus
C120868	C120531		Non-Neoplastic Finding Type	BASOPHILIC GRANULES		Intracytoplasmic phagolysosomes that are strongly basophilic. These structures are typically seen in response to oligonucleotides.	Basophilic Phagolysosome
C139137	C120531		Non-Neoplastic Finding Type	BASOPHILIC HYPERTROPHIC FOCUS		Discrete unencapsulated noncompressing focus/foci involving one or more acini with enlarged basophilic cells and occasionally enlarged nuclei.	Basophilic Hypertrophic Focus
C161544	C120531		Non-Neoplastic Finding Type	BASOPHILIC TUBULE	Basophilia, Tubule	A basophilic tinctorial change in renal tubular epithelium that is often associated with enlarged cells.	Basophilic Tubule
C204712	C120531		Non-Neoplastic Finding Type	BILE PLUG		Accumulation of bile pigment in bile canaliculi of the liver, consistent with the clinical condition of cholestasis. (INHAND)	Bile Plug
C166104	C120531		Non-Neoplastic Finding Type	BONE REMODELING, INCREASED		Increase in the removal of mineralized bone matrix and/or mature bone and the formation of new bone.	Increased Bone Remodeling
C139139	C120531		Non-Neoplastic Finding Type	BONE, DECREASED		Decrease in the amount of bone tissue.	Decreased Bone Tissue
C139140	C120531		Non-Neoplastic Finding Type	BONE, INCREASED		Increase in the amount of bone tissue.	Increased Bone Tissue
C84475	C120531		Non-Neoplastic Finding Type	BRONCHIECTASIS		Segmental dilatation of the bronchial tree.	Bronchiectasis
C214765	C120531		Non-Neoplastic Finding Type	C-CELL COMPLEX		Remnants of cells of ultimobranchial body origin composed of clusters of C-cells in various developmental stages. (INHAND)	C-cell Complex
C35708	C120531		Non-Neoplastic Finding Type	CALCULUS	Calculi;CALCULUS(I)	A concretion of material in the body, usually composed of mineral salts. Representative examples include gallbladder stones, kidney stones, and salivary gland stones.	Stone
C213929	C120531		Non-Neoplastic Finding Type	CALLUS		An unorganized meshwork of woven bone developed on the pattern of the original clot, which is formed following fracture of the bone.	Bone Callus
C38095	C120531		Non-Neoplastic Finding Type	CAST	Casts;CAST(S) HYALINE;HYALINE CAST	A mold of a hollow structure (e.g. renal tubule, bronchiole). The casts may be composed of various materials (e.g. protein, granular substance, cellular debris). (INHAND)	Urine Casts
C120869	C120531		Non-Neoplastic Finding Type	CELL DEBRIS	Cellular Debris	An accumulation of cell fragments.	Cellular Debris
C139138	C120531		Non-Neoplastic Finding Type	CELLULARITY, DECREASED		Decreased number of cells, which may also be accompanied by a change in cell size.	Decreased Cellularity Present
C41428	C120531		Non-Neoplastic Finding Type	CELLULARITY, INCREASED		Increased number of cells, which may also be accompanied by a change in cell size.	Increased Cellularity Present
C60373	C120531		Non-Neoplastic Finding Type	CHOLANGIOFIBROSIS		A hepatotoxin-induced finding in the liver consisting of dilated/cystic bile ducts filled with mucus and cellular debris and surrounded by inflammatory cell infiltrates and often sclerotic connective tissue. Epithelium is pleomorphic and, in cystic glands, may be partially lost resulting in crescent shaped structures. (INHAND)	Rat Cholangiofibrosis
C2944	C120531		Non-Neoplastic Finding Type	CHOLESTEATOMA		A squamous cyst that may contain cholesterol clefts and granulomatous inflammation. (INHAND)	Cholesteatoma
C120870	C120531		Non-Neoplastic Finding Type	CHOLESTEROL CLEFT	Acicular Cleft;Cholesterol Clefts	Presence of flat, thin, rhomboid spaces in tissue created by the dissolution of cholesterol crystals during processing.	Cholesterol Cleft
C120871	C120531		Non-Neoplastic Finding Type	CHROMATOLYSIS		The disintegration of the chromophil substance (Nissl bodies) in a nerve cell body which may occur after injury to the cell.	Chromatolysis
C120872	C120531		Non-Neoplastic Finding Type	CHRONIC PROGRESSIVE NEPHROPATHY	NEPHROPATHY	A spontaneous, age-related renal disease of rats and mice, characterized by morphological changes such as degeneration of the epithelium lining of the tubules, cast formation, thickening of glomerulus, Bowman and proximal tubular basement membranes, and lesions in the glomeruli leading to mesangial overload and glomerulosclerosis. (NCI)	Chronic Progressive Nephropathy
C221706	C120531		Non-Neoplastic Finding Type	COLLAGEN, INCREASED		Increase in the amount of collagen.	Increased Collagen
C163722	C120531		Non-Neoplastic Finding Type	COLLOID ALTERATION		Stippled, granular or clumped colloid, and/or variable staining characteristics, and often contains mineralized material and desquamated follicular cells. (INHAND)	Colloid Alteration
C163723	C120531		Non-Neoplastic Finding Type	COLLOID, DECREASED		Decrease in the amount of colloid.	Decreased Colloid
C163724	C120531		Non-Neoplastic Finding Type	COLLOID, INCREASED		Increase in the amount of colloid.	Increased Colloid
C202461	C120531		Non-Neoplastic Finding Type	COMPOUND FOLLICLE		Large, variably-shaped, irregular lymphoid follicles and irregularly-shaped germinal centers in the spleen. (INHAND)	Compound Follicle
C41208	C120531		Non-Neoplastic Finding Type	COMPRESSION		A deformation of tissues or organs by an external force (e.g., fractures, tumors, blood clots, abscesses, etc.).	Compression
C221707	C120531		Non-Neoplastic Finding Type	CONDYLOMA, INFLAMMATORY		Exophytic polypoid lesion composed of hyperplastic squamous epithelium supported by fibrous stroma, and submucosal and intraepithelial infiltrates of eosinophils. (INHAND)	Inflammatory Condyloma
C82971	C120531		Non-Neoplastic Finding Type	CONGESTION		Increased number of erythrocytes in the capillary bed or larger vessels of an organ. (INHAND)	Tissue Congestion
C170640	C120531		Non-Neoplastic Finding Type	CONGESTION/HEMORRHAGE		A finding that generally has features of congestion and hemorrhage.	Congestion and Hemorrhage
C36021	C120531		Non-Neoplastic Finding Type	CORPORA AMYLACEA	Concretion	Accumulation of compacted hyaline masses, which may appear mineralized.	Corpora Amylacea
C147494	C120531		Non-Neoplastic Finding Type	CORPORA LUTEA, DECREASED NUMBER		Decreased number of corpora lutea.	Decreased Corpora Lutea
C147495	C120531		Non-Neoplastic Finding Type	CORPORA LUTEA, INCREASED NUMBER		Increased number of corpora lutea.	Increased Corpora Lutea
C176401	C120531		Non-Neoplastic Finding Type	CORTICOMEDULLARY RATIO, DECREASED		Decrease in the size of the cortex relative to the medulla.	Decreased Corticomedullary Ratio
C176402	C120531		Non-Neoplastic Finding Type	CORTICOMEDULLARY RATIO, INCREASED		Increase in the size of the cortex relative to the medulla.	Increased Corticomedullary Ratio
C35920	C120531		Non-Neoplastic Finding Type	CRIBRIFORM CHANGE	Pseudoglandular Formation	Formation of epithelial pseudoglandular structures with lumens.	Cribriform Pattern
C120873	C120531		Non-Neoplastic Finding Type	CRUST	Scab;SCAB(S);SCABS	A covering or layer of solid matter formed by dried bodily exudate or secretion.	Cutaneous Crust
C61303	C120531		Non-Neoplastic Finding Type	CRYSTALS	Crystal;Crystal Formation	A clear or pale solid having a highly regular structure, which may present as a crystal profile.	Crystal
C2978	C120531		Non-Neoplastic Finding Type	CYST	CYST(S);CYSTS	A sac-like closed pocket of tissue that may be empty or may be filled with fluid, gas, semisolid, or amorphous material. It typically has an outer epithelial-lined capsule.	Cyst
C41454	C120531		Non-Neoplastic Finding Type	CYSTIC DEGENERATION		A finding consisting of multilocular cysts lined by fine septa containing fine flocculent eosinophilic material or, in some tissues, blood. The cysts are not lined by endothelial cells and do not compress the surrounding parenchyma. This does not include congenital polycystic change. (INHAND)	Cystic Change
C202458	C120531		Non-Neoplastic Finding Type	CYSTIC FOLLICLE		Normal thyroid follicles that are many times larger than normal and usually focal. (INHAND)	Cystic Follicle
C154895	C120531		Non-Neoplastic Finding Type	CYTOPLASMIC ALTERATION		A cytoplasmic change that may be characterized by, but is not limited to, increased cytoplasmic granularity, eosinophilia, and/or cell swelling.	Cytoplasmic Alteration
C123636	C120531		Non-Neoplastic Finding Type	DECIDUAL REACTION		A primarily uterine reaction with generally indistinct borders and two recognizable regions. These regions are an antimesometrial region containing closely packed mesenchymal cells and a mesometrial region containing mesometrial cells with long cytoplasmic processes and abundant glycogen. (INHAND)	Experimental Organism Decidual Reaction
C123637	C120531		Non-Neoplastic Finding Type	DECIDUALIZATION		A focal lesion within the uterus consisting of markedly hypertrophied stromal cells with cytoplasmic glycogen and prominent nuclei.	Experimental Organism Decidualization
C179650	C120531		Non-Neoplastic Finding Type	DECIDUOSIS		The presence of plaque(s) or nodule(s) containing decidualized cells, resembling the endometrium during pregnancy or high dose progesterone treatment, interspersed with granulated lymphocytes containing eosinophilic cytoplasmic globules. (INHAND)	Ectopic Decidua
C50774	C120531		Non-Neoplastic Finding Type	DEGENERATION	DEGENERATION, TUBULAR EPITHELIAL CELL;DEGENERATION/REGENERATION EPITHELIAL	Disturbance of cell integrity and deterioration of normal tissue, cells or organs.	Tissue Degeneration
C120874	C120531		Non-Neoplastic Finding Type	DEGENERATION/ATROPHY	Atrophy/Degeneration	A finding that generally has features of degeneration and atrophy.	Degeneration and Atrophy
C120875	C120531		Non-Neoplastic Finding Type	DEGENERATION/NECROSIS	Necrosis/Degeneration	A finding that generally has features of degeneration and necrosis.	Degeneration and Necrosis
C120876	C120531		Non-Neoplastic Finding Type	DEGENERATION/REGENERATION	Regeneration/Degeneration	A finding that generally has features of degeneration and regeneration.	Degeneration and Regeneration
C161563	C120531		Non-Neoplastic Finding Type	DEGENERATION/VACUOLATION		A finding that generally has features of degeneration and vacuolation.	Degeneration And Vacuolation
C3293	C120531		Non-Neoplastic Finding Type	DEGENERATIVE JOINT DISEASE		A disease process characterized by degeneration of the articular cartilage, hypertrophy of bone at the margins and changes in the synovial membrane. (INHAND)	Osteoarthritis
C163725	C120531		Non-Neoplastic Finding Type	DEGRANULATION		Loss of cytoplasmic granules.	Degranulation
C117277	C120531		Non-Neoplastic Finding Type	DEMYELINATION		Loss of myelin with relative preservation of the ensheathed axon, characterized by the presence of myelin ovoids and reduced myelin staining.	Demyelination
C139141	C120531		Non-Neoplastic Finding Type	DENTAL DYSPLASIA		Aberrant development of odontogenic tissues without accompanying fracture. (INHAND)	Dental Dysplasia
C139142	C120531		Non-Neoplastic Finding Type	DENTICLE		Tooth-like structure formed from displaced odontogenic tissue, which may include dental papilla. (NCI)	Denticle
C139143	C120531		Non-Neoplastic Finding Type	DENTIN MATRIX ALTERATION		A change to the dentin matrix characterized by abnormal dentin appearance, such as tubules being arranged in disorderly fashion and/or cells or inclusions trapped in the dentin matrix.	Dentin Matrix Alteration
C139144	C120531		Non-Neoplastic Finding Type	DENTIN NICHES		Focal or multi-focal recesses within the dentin. (INHAND)	Dentin Niche Formation
C139145	C120531		Non-Neoplastic Finding Type	DENTIN, DECREASED		Decrease in the amount of dentin.	Decreased Dentin
C161562	C120531		Non-Neoplastic Finding Type	DENTIN, INCREASED		Increase in the amount of dentin.	Increased Dentin
C161546	C120531		Non-Neoplastic Finding Type	DEPOSITS, EXTRACELLULAR MATRIX, SUBRETINA	Drusen	Extracellular deposits of irregular, amorphous material located between the retinal pigment epithelium and Bruch's membrane. (INHAND)	Subretinal Extracellular Matrix Deposit
C161547	C120531		Non-Neoplastic Finding Type	DERMOID, OCULAR		Choristomatous tissue arising from an ectodermal anlage.	Ocular Dermoid
C26874	C120531		Non-Neoplastic Finding Type	DETACHMENT, RETINA		Separation of the photoreceptor outer segment from the retinal pigmented epithelium. (INHAND)	Retinal Detachment
C113136	C120531		Non-Neoplastic Finding Type	DILATATION	Dilation;DILATATION ACINUS(I);DILATATION GLAND(S)	Expansion of the cavity, ducts or lumen of a hollow organ or vessel.	Dilation
C161548	C120531		Non-Neoplastic Finding Type	DILATATION/DIVERTICULUM	Dilation/Diverticulum	A finding that generally has features of dilatation and a diverticulum.	Dilatation and Diverticulum
C118864	C120531		Non-Neoplastic Finding Type	DISLOCATION, LENS		Displacement of the crystalline lens into the anterior or posterior chambers.	Crystalline Lens Dislocation
C161566	C120531		Non-Neoplastic Finding Type	DISPLACEMENT, PHOTORECEPTOR NUCLEI		Photoreceptor cell located external to the retinal outer limiting membrane. (INHAND)	Photoreceptor Nuclei Displacement
C226063	C120531		Non-Neoplastic Finding Type	DISSOCIATION, HEPATOCYTE		An acute, degenerative change characterized by hepatocytes with rounded cell margins that have lost intercellular attachments and centrilobular areas with acute circulatory failure. (INHAND)	Hepatocyte Dissociation
C26753	C120531		Non-Neoplastic Finding Type	DIVERTICULUM		A sac-like protrusion in the wall of a hollow organ or tissue.	Diverticulum
C36235	C120531		Non-Neoplastic Finding Type	DYSHEMATOPOIESIS		Abnormal maturation of erythroid, myeloid, and/or megakaryocytic lineages. (INHAND)	Bone Marrow Dysplasia Present
C161542	C120531		Non-Neoplastic Finding Type	DYSTROPHY, AXONAL		Intracellular accumulation of cytoskeletal elements, characterized by large, eosinophilic, fusiform, or torpedo-shaped swellings (spheroids) in axons. (INHAND)	Neuroaxonal Dystrophy
C34513	C120531		Non-Neoplastic Finding Type	DYSTROPHY, CORNEA		A spontaneous, non-inflammatory finding of the rabbit corneal epithelium, characterized by thickened, elevated epithelium interspersed with areas of abnormally thin epithelium. (INHAND)	Corneal Dystrophy
C221702	C120531		Non-Neoplastic Finding Type	DYSYNCHRONUS ENDOMETRIUM	Decreased Endometrial Differentiation	Abnormal endometrial appearance for the observed ovarian structures.	Decreased Endometrial Differentiation
C120877	C120531		Non-Neoplastic Finding Type	ECTASIA		Expansion of substructures (such as ducts, glands, sinuses, alveoli) within the tissue.	Ectasia
C132486	C120531		Non-Neoplastic Finding Type	ECTOPIC TISSUE	Ectopia;Heterotopia;ECTOPIC LYMPHOID TISSUE;ACCESSORY TISSUE	An otherwise normal tissue or portion of tissue that forms in a location of the body at or in which it is not normally present.	Ectopic Tissue
C3002	C120531		Non-Neoplastic Finding Type	EDEMA	FLUID ACCUMULATION	Excessive amount of watery fluid in tissues or cavities, generally characterized microscopically as clear spaces separating tissue components.	Edema
C120878	C120531		Non-Neoplastic Finding Type	ELASTOSIS		Degeneration of elastin with accumulation of irregular, thickened elastic fibers.	Elastosis
C50547	C120531		Non-Neoplastic Finding Type	EMBOLUS	Emboli	An intravascular mass, such as clotted blood or other elements, that was carried in the blood and occludes distal vessels.	Embolus
C35987	C120531		Non-Neoplastic Finding Type	EMPERIPOLESIS		Penetration or engulfment of one cell (neutrophils or other hematopoietic cells), which remains intact, by another (often megakaryocyte) cell. (INHAND)	Emperipolesis
C3348	C120531		Non-Neoplastic Finding Type	EMPHYSEMA		Abnormal enlargement of the air space distal to the terminal bronchiole accompanied by destructive changes in the alveolar septa.	Pulmonary Emphysema
C163726	C120531		Non-Neoplastic Finding Type	ENAMEL, DECREASED		Decrease in the amount of enamel.	Decreased Enamel
C3014	C120531		Non-Neoplastic Finding Type	ENDOMETRIOSIS		Presence of endometrial tissue outside of endometrium and myometrium, consisting of both endometrial glands and stroma.	Endometriosis
C221699	C120531		Non-Neoplastic Finding Type	EOSINOPHILIC BODIES, RETINA	EOSINOPHILIC BODIES, RETINAL	An age related change in rabbits characterized by the presence of pale, eosinophilic round structures, identified as neurofilament accumulations, in horizontal cell neurites in the retina. (INHAND)	Rabbit Retinal Eosinophilic Bodies
C132487	C120531		Non-Neoplastic Finding Type	EOSINOPHILIC GLOBULES		Intracytoplasmic droplets that are strongly eosinophilic.	Eosinophilic Globules
C120879	C120531		Non-Neoplastic Finding Type	EPITHELIAL ALTERATION	Respiratory Tract Epithelial Alteration	A change or slight modification in respiratory and/or cuboidal/transitional epithelial cells in the respiratory system, characterized mainly by loss of cilia (respiratory epithelium), flattening and horizontal orientation of epithelial cells and a slight increase in cell layers.	Respiratory Tract Epithelial Alteration
C221708	C120531		Non-Neoplastic Finding Type	EPITHELIAL PLAQUE		A lesion composed of a florid proliferation of epithelial cells. (INHAND)	Epithelial Plaque
C221704	C120531		Non-Neoplastic Finding Type	EPITHELIAL SECRETORY CHANGE		Presence of cytoplasmic vacuoles, lipid droplets, and/or bright red granules within the cytoplasm of secretory mammary gland epithelial cells, often with luminal dilatation. (INHAND)	Epithelial Secretory Change
C147496	C120531		Non-Neoplastic Finding Type	ERODED SURFACE, INCREASED		Increase in the amount of surface erosion.	Increased Eroded Surface
C50443	C120531		Non-Neoplastic Finding Type	EROSION	EROSION/ULCER	A shallow or superficial destruction of a surface, without destruction of the basement membrane. (INHAND)	Erosion
C120880	C120531		Non-Neoplastic Finding Type	EROSION/ULCER	Erosion/Ulceration;Ulcer/Erosion	A finding that generally has features of erosion and ulceration.	Eroded and Ulcerated Lesion
C35584	C120531		Non-Neoplastic Finding Type	ERYTHROPHAGOCYTOSIS		Macrophages containing phagocytized intact or fragmented erythrocytes, with or without nuclei, and/or erythrocyte ghosts. (INHAND)	Erythrophagocytosis
C111657	C120531		Non-Neoplastic Finding Type	EXFOLIATION		Shedding or sloughing of cells from an epithelial surface, including skin, mucosa and testis.	Desquamation
C41235	C120531		Non-Neoplastic Finding Type	EXTRAMEDULLARY HEMATOPOIESIS	HEMATOPOIESIS;INCREASED EXTRAMEDULLARY HEMATOPOIESIS	Formation of blood cells that occurs outside of the bone marrow.	Extramedullary Hematopoiesis
C13233	C120531		Non-Neoplastic Finding Type	EXUDATE		Accumulation of extravasated fluid containing inflammatory cells and fibrin. Necrotic debris and/or other cellular and extracellular components may also be present.	Exudate
C36185	C120531		Non-Neoplastic Finding Type	FATTY CHANGE		Increased lipid within the cytoplasm of cells.	Steatosis
C139146	C120531		Non-Neoplastic Finding Type	FIBRO-OSSEOUS LESION		Accumulation of a mixed cell population of non-neoplastic mesenchymal cells along endosteal surfaces which may be associated with focal osteoclastic bone resorption and marrow fibroplasia. (INHAND)	Experimental Organism Fibro-osseous Lesion
C120881	C120531		Non-Neoplastic Finding Type	FIBROPLASIA		The formation of fibrous tissue characterized by an increased number of active, plump fibroblasts and variable amounts of collagen.	Fibroplasia
C3044	C120531		Non-Neoplastic Finding Type	FIBROSIS	FIBROPLASIA	Increase in collagen and low numbers of fibrocytes.	Fibrosis
C221700	C120531		Non-Neoplastic Finding Type	FIBROSIS/EPITHELIAL HYPERPLASIA		A finding that generally has features of fibrosis and epithelial hyperplasia.	Fibrosis/Epithelial Hyperplasia
C139147	C120531		Non-Neoplastic Finding Type	FIBROUS OSTEODYSTROPHY		The replacement of cortical bone by fibrous connective tissue and stromal cells.	Fibrous Osteodystrophy
C120882	C120531		Non-Neoplastic Finding Type	FOCUS OF CELLULAR ALTERATION	Foci of Cellular Alteration;Focus/foci of Cellular Alteration	A localized proliferation of hepatocytes phenotypically different from surrounding hepatocyte parenchyma with no or minimal compression of surrounding tissue.	Focus of Cellular Alteration
C163727	C120531		Non-Neoplastic Finding Type	FOLLICLES, ABSENT		Absence of follicles.	Absent Follicles
C163728	C120531		Non-Neoplastic Finding Type	FOLLICLES, DECREASED		Decreased number and/or size of follicles.	Decreased Follicles
C163729	C120531		Non-Neoplastic Finding Type	FOLLICLES, DECREASED/FOLLICLES, ABSENT	Follicles, Decreased/Absent	A finding that generally has features of decreased follicles and absent follicles.	Decreased Follicles and Absent Follicles
C163730	C120531		Non-Neoplastic Finding Type	FOLLICLES, INCREASED		Increased number and/or size of follicles.	Increased Follicles
C34620	C120531		Non-Neoplastic Finding Type	FOREIGN MATERIAL	Foreign Body	Any physical substance originating inside or outside the body is not in it's physiological or intended location.	Foreign Body
C3046	C120531		Non-Neoplastic Finding Type	FRACTURE		Localized disruption of bone or tooth structure resulting in partial or complete discontinuity. (INHAND)	Fracture
C120883	C120531		Non-Neoplastic Finding Type	FUNGUS	Fungi	The presence of fungi.	Fungus Present
C120884	C120531		Non-Neoplastic Finding Type	GERM CELL DEGENERATION		Disturbance of cell integrity and deterioration of germ cells.	Germ Cell Degeneration
C120885	C120531		Non-Neoplastic Finding Type	GERM CELL DEPLETION		Partial or complete absence of germ cell layer(s). (INHAND)	Germ Cell Depletion
C120886	C120531		Non-Neoplastic Finding Type	GERM CELL DEPLETION/GERM CELL DEGENERATION	Germ Cell Degeneration/Germ Cell Depletion	A finding that generally has features of germ cell depletion and germ cell degeneration.	Germ Cell Depletion and Germ Cell Degeneration
C161564	C120531		Non-Neoplastic Finding Type	GLIAL CELLS, INCREASED NUMBER		Increase in the number of glial cells.	Experimental Organism Increased Number of Glial Cells
C26783	C120531		Non-Neoplastic Finding Type	GLIOSIS		Nonspecific reactive response of nervous system glial cells, chiefly astrocytes and microglia rather than oligodendroglia.	Gliosis
C189652	C120531		Non-Neoplastic Finding Type	GLOMERULAR LIPIDOSIS		Segmental change in mesangial cells of the glomerular tuft with aggregation of lipid-laden foam cells. (INHAND)	Glomerular Lipidosis
C26784	C120531		Non-Neoplastic Finding Type	GLOMERULONEPHRITIS	Glomerular Nephritis	Inflammatory changes in the renal glomeruli characterized by thickening of the glomerular basement membrane, mesangial cell proliferation and/or mononuclear inflammatory cell infiltration. In some forms, the glomerular epithelial cells may also proliferate and form adhesions.	Glomerulonephritis
C120887	C120531		Non-Neoplastic Finding Type	GLOMERULOPATHY		Chronic degenerative changes in the glomeruli characterized by loss of cellularity of glomerular capillary tufts and acellular deposition of immunoglobulins.	Glomerulopathy
C120888	C120531		Non-Neoplastic Finding Type	GLOMERULOSCLEROSIS	Glomerular Sclerosis	Hyaline deposits or scarring within the renal glomeruli. (INHAND)	Glomerulosclerosis
C214766	C120531		Non-Neoplastic Finding Type	GLOMERULUS, IMMATURE		The presence of a glomerulus showing features of incomplete development.	Immature Glomerulus
C34652	C120531		Non-Neoplastic Finding Type	GRANULATION TISSUE		A finding associated with tissue repair, characterized by the presence of ingrowth of fibroblasts and new blood vessels.	Granulation Tissue
C158333	C120531		Non-Neoplastic Finding Type	GRANULES, INCREASED		Increased number and/or size of granules in the cytoplasm of cells.	Increased Granules
C3064	C120531		Non-Neoplastic Finding Type	GRANULOMA		An organized chronic inflammatory reaction characterized by the presence of epithelioid macrophages. Giant cells and/or necrosis can be observed.	Granuloma
C139148	C120531		Non-Neoplastic Finding Type	GROWTH PLATE CLOSED	Physis Closed	Cartilage of the physis is replaced by bone.	Growth Plate Closed
C154893	C120531		Non-Neoplastic Finding Type	GROWTH PLATE OPEN	Physis Open	A physis consisting of hyaline cartilage, without complete osseous fusion.	Growth Plate Open
C163731	C120531		Non-Neoplastic Finding Type	GROWTH PLATE PARTIALLY CLOSED	Physis Partially Closed	Cartilage of the physis is incompletely replaced by bone.	Growth Plate Partially Closed
C161549	C120531		Non-Neoplastic Finding Type	HAIR CELL, DECREASED NUMBER		Decreased number of hair cells.	Sensory Hair Cell Loss
C3075	C120531		Non-Neoplastic Finding Type	HAMARTOMA		An excessive but focal overgrowth of cells and tissues native to the organ in which it occurs.	Hamartoma
C132488	C120531		Non-Neoplastic Finding Type	HELICOBACTER		The presence of any species of Helicobacter.	Helicobacter Present
C75548	C120531		Non-Neoplastic Finding Type	HEMATOCYST		An endothelial lined cyst-like structure filled with blood, which typically occurs on a cardiac valve.	Hemorrhagic Cyst
C50579	C120531		Non-Neoplastic Finding Type	HEMATOMA		A large, localized, space-occupying collection of extravasated blood in a tissue or organ.	Hematoma
C26791	C120531		Non-Neoplastic Finding Type	HEMORRHAGE		The presence of extravascular erythrocytes.	Hemorrhage
C184726	C120531		Non-Neoplastic Finding Type	HEMOSIDEROTIC PLAQUE	Fibrosiderosis	Yellow-brown, small, firm nodules composed of fibrous tissue and collagenous and/or elastic fibers that are impregnated with bilirubin, hemosiderin, and/or calcium salts.	Hemosiderotic Plaque
C161539	C120531		Non-Neoplastic Finding Type	HEPATOCYTES, SUBINTIMAL		Presence of normal hepatocytes in hepatic veins and within the contour of the vessel. (INHAND)	Vascular Infiltration by Hepatocytes
C120889	C120531		Non-Neoplastic Finding Type	HEPATODIAPHRAGMATIC NODULE		A congenital abnormality of the liver, characterized by grossly visible nodule(s) usually located on the median lobe. (INHAND)	Hepatodiaphragmatic Nodule
C221705	C120531		Non-Neoplastic Finding Type	HERNIATION, GLAND		Extension of crypts or glands through the muscularis mucosa into the submucosa, with maintenance of the basement membrane. (INHAND)	Gland Herniation
C176405	C120531		Non-Neoplastic Finding Type	HYALINE MATERIAL		Any physical substance with hyaline (glassy or translucent) characteristics.	Hyaline Material
C3111	C120531		Non-Neoplastic Finding Type	HYDROCEPHALUS		An enlargement of the ventricles relative to brain tissue.	Hydrocephalus
C123638	C120531		Non-Neoplastic Finding Type	HYDROMYELIA		Dilatation of the central canal of the spinal cord.	Hydromyelia
C35541	C120531		Non-Neoplastic Finding Type	HYPERKERATOSIS	Increased Keratinization;ACANTHOSIS/HYPERKERATOSIS	Thickening of the outermost layer of stratified squamous epithelium.	Hyperkeratosis
C3113	C120531		Non-Neoplastic Finding Type	HYPERPLASIA	HYPERPLASIA DIFFUSE;HYPERTROPHY/HYPERPLASIA	Increase in the number of resident cells, generally with an increase in mitotic figures present, per unit area in an organ or tissue.	Hyperplasia
C170641	C120531		Non-Neoplastic Finding Type	HYPERPLASIA/HYPERKERATOSIS		A finding that generally has features of hyperplasia and hyperkeratosis.	Hyperplasia and Hyperkeratosis
C120890	C120531		Non-Neoplastic Finding Type	HYPERPLASIA/METAPLASIA	Metaplasia/Hyperplasia	A finding that generally has features of hyperplasia and metaplasia.	Hyperplasia and Metaplasia
C176406	C120531		Non-Neoplastic Finding Type	HYPERSEGMENTATION, GRANULOCYTE		Increase in the number of cells with nuclear hypersegmentation.	Increased Number of Hypersegmented Neutrophils Present
C3124	C120531		Non-Neoplastic Finding Type	HYPERTROPHY	HYPERTROPHY HEPATOCELLULAR;HYPERTROPHY FOLLICULAR CELL(S)	Cell size enlargement due to the increase in the amount of cytoplasm and its constituent organelles. The cells are larger but otherwise the appearance is unchanged.	Hypertrophy
C120891	C120531		Non-Neoplastic Finding Type	HYPERTROPHY/HYPERPLASIA	Hyperplasia/Hypertrophy	A finding that generally has features of hypertrophy and hyperplasia.	Hypertrophy and Hyperplasia
C120892	C120531		Non-Neoplastic Finding Type	HYPERTROPHY/KARYOMEGALY	Karyomegaly/Hypertrophy	A finding that generally has features of hypertrophy and karyomegaly.	Hypertrophy and Karyomegaly
C120893	C120531		Non-Neoplastic Finding Type	HYPOPLASIA		Incomplete or underdevelopment of a tissue or organ. (NCI)	Hypoplasia
C166105	C120531		Non-Neoplastic Finding Type	HYPOSPERMATOGENESIS		Transient failure of spermatogenesis affecting a segment of the seminiferous tubule resulting in partial or complete absence of one or more generations of germ cells, occurring in the absence of significant degeneration of germ cells.	Hypospermatogenesis
C25531	C120531		Non-Neoplastic Finding Type	IMMATURITY		In an early period of life or development or growth; not fully developed.	Immature
C123639	C120531		Non-Neoplastic Finding Type	IMPERFORATE VAGINA		Embryologic remnant consisting of a persistent connective tissue membrane within the vaginal vault.	Imperforate Vagina
C181555	C120531		Non-Neoplastic Finding Type	IMPLANTATION SITE REMNANT		The persistence of implantation site material after pregnancy.	Implantation Site Remnant
C120945	C120531		Non-Neoplastic Finding Type	INCLUSION	Inclusion Bodies;Inclusion Body;Inclusions	A general term used to describe abnormal structures present within the cytoplasm or nucleus of a cell. (INHAND)	Inclusion Body
C25738	C120531		Non-Neoplastic Finding Type	INFARCT	Infarction;Infarcts	Localized necrosis of tissue resulting from obstruction of the blood supply usually by a thrombus, an embolus, or vascular torsion.	Infarction
C42077	C120531		Non-Neoplastic Finding Type	INFILTRATE	Cellular Infiltration;Infiltration;INFILTRATION GRANULOCYTIC;INFILTRATION MONONUCLEAR CELL;INFILTRATION, MONONUCLEAR CELL;INFILTRATION, MIXED CELL;INFILTRATION, NEUTROPHILIC;INFILTRATION, HETEROPHILIC;INFILTRATE, MIXED CELL;INFILTRATE, MONONUCLEAR CELL	An influx of cells, generally leukocytes, in locations or numbers not normally found, without other features of inflammation.	Cellular Infiltrate
C139155	C120531		Non-Neoplastic Finding Type	INFILTRATE/FIBROSIS		A finding that generally has features of infiltrate and fibrosis.	Infiltrate and Fibrosis
C3137	C120531		Non-Neoplastic Finding Type	INFLAMMATION	INFLAMMATION ACUTE;INFLAMMATION CHRONIC;INFLAMMATION, ACUTE;INFLAMMATION-SKIN	A response to an injury or abnormal stimuli characterized by inflammatory cell infiltration and varying degrees of vascular and tissue reactions (hyperemia, edema, fibrin, and/or fibrosis).	Inflammation
C26834	C120531		Non-Neoplastic Finding Type	INTERSTITIAL NEPHRITIS		Generalized inflammation of the renal interstitium characterized by a diffuse or patchy distribution of lymphocytes, plasma cells and/or macrophages and variable degrees of edema.	Interstitial Nephritis
C139156	C120531		Non-Neoplastic Finding Type	INTIMAL THICKENING		An increase in matrix, without an increase in cell numbers, between the endothelium and the internal elastic lamina. (INHAND)	Pathologic Intimal Thickening
C147497	C120531		Non-Neoplastic Finding Type	INTRAHEPATOCELLULAR ERYTHROCYTES		The presence of red blood cells within hepatocytes.	Intrahepatocellular Erythrocytes
C139157	C120531		Non-Neoplastic Finding Type	INTRAMURAL PLAQUE		A plaque located in the tunica intima of vessels characterized by the presence of granular material, collagenous fibers with interspersed spindle cells, and focal protrusion of a variably mineralized matrix into the vascular lumen. (INHAND)	Intramural Plaque
C214769	C120531		Non-Neoplastic Finding Type	INTRAMURAL PLAQUE, FATTY		An accumulation of free lipids (may have cholesterol clefts) or intracellular lipids (usually with foamy macrophages) and inflammatory cells in the media and/or intima of vessels. (INHAND)	Fatty Intramural Plaque
C166106	C120531		Non-Neoplastic Finding Type	INTRASINUSOIDAL ERYTHROCYTES	Erythrocytes, Intrasinusoidal	The presence of red blood cells within lymph node sinuses.	Lymph Node Intrasinusoidal Erythrocytes
C113484	C120531		Non-Neoplastic Finding Type	INTUSSUSCEPTION		Telescoping or invagination of a portion of a tubuluar organ into an adjacent segment.	Intussusception
C120894	C120531		Non-Neoplastic Finding Type	KARYOCYTOMEGALY		An increase in nuclear size and amount of cytoplasm of a cell. The cells or nucleus may be slightly irregular and/or may be polyploid.	Karyocytomegaly
C120895	C120531		Non-Neoplastic Finding Type	KARYOCYTOMEGALY/MULTINUCLEATED HEPATOCYTES	Multinucleated Hepatocytes/Karyocytomegaly	A finding that generally has features of karyocytomegaly and multinucleated hepatocytes.	Karyocytomegaly and Multinucleated Hepatocytes
C120896	C120531		Non-Neoplastic Finding Type	KARYOMEGALY	Nuclear Enlargement	An increase in the size of a cellular nucleus. (NCI)	Karyomegaly
C161550	C120531		Non-Neoplastic Finding Type	KERATINIZATION		The presence of keratin in an epithelial tissue where it is not normally found.	Keratinization
C161543	C120531		Non-Neoplastic Finding Type	KERATINIZING CYST		A thin, uniform cyst wall composed of well differentiated, flattened squamous epithelium undergoing orderly maturation and filled with large amounts of keratin.	Experimental Organism Keratinizing Cyst
C84829	C120531		Non-Neoplastic Finding Type	LIPOPROTEINOSIS		The abnormal, excessive accumulation of acellular, periodic acid-Schiff positive, pale eosinophilic material (lipoprotein-type). This is typically found in the pulmonary alveoli.	Lipoid Proteinosis of Urbach and Wiethe
C176404	C120531		Non-Neoplastic Finding Type	LOSS OF CORTICOMEDULLARY DISTINCTION		Decrease in corticomedullary distinction due to changes in lymphocyte cellularity.	Loss of Corticomedullary Distinction
C123640	C120531		Non-Neoplastic Finding Type	LUTEINIZED FOLLICLE	Luteinized Unruptured Follicle	A corpus luteum-like structure with a retained oocyte and variably luteinized granulosa cells.	Experimental Organism Luteinized Unruptured Follicle
C97087	C120531		Non-Neoplastic Finding Type	LYMPHANGIECTASIS		Dilatation of the lymphatic vessels. (NCI)	Lymphangiectasia
C36287	C120531		Non-Neoplastic Finding Type	MALFORMATION		A permanent structural change that is likely to adversely affect the form, survival or health of the species under study. (Gupta, R. C. ed. (2011) Reproductive and Developmental Toxicology. London, UK: Elsevier, Inc.)	Congenital or Acquired Anatomic Abnormality
C120897	C120531		Non-Neoplastic Finding Type	MESANGIOLYSIS		A finding in the glomerulus of the kidney, characterized by the degeneration of mesangial cells and the dissolution of the mesangial matrix.	Mesangiolysis
C124611	C120531		Non-Neoplastic Finding Type	MESENCHYMAL PROLIFERATIVE LESION		A proliferative lesion composed of large eosinophilic epithelioid and spindle cells.	Experimental Organism Mesenchymal Proliferative Lesion
C61581	C120531		Non-Neoplastic Finding Type	MESONEPHRIC DUCT REMNANT		The persistence of the mesonephric duct beyond embryogenesis. (NCI)	Mesonephric Remnants
C3236	C120531		Non-Neoplastic Finding Type	METAPLASIA		Conversion of a mature, normal cell or groups of mature cells to other forms of mature cells.	Metaplasia
C96272	C120531		Non-Neoplastic Finding Type	MICROABSCESS		A very small, circumscribed collection of white blood cells, predominantly neutrophils.	Microabscess
C120898	C120531		Non-Neoplastic Finding Type	MICROGLIOSIS		An accumulation of microglial cells in nervous system tissue.	Microgliosis
C120899	C120531		Non-Neoplastic Finding Type	MINERALIZATION	Calcification;Mineral;MINERALIZATION, CORTICOMEDULLARY JUNCTION	Basophilic, granular deposits of inorganic material in tissue.	Mineralization
C163732	C120531		Non-Neoplastic Finding Type	MITOTIC FIGURES, INCREASED		An increase in the number of mitotic figures.	Increased Mitotic Activity
C129004	C120531		Non-Neoplastic Finding Type	MUCIFICATION, INCREASED		Increase in the number of mucus-producing epithelial cells, which may form a distinct mucified layer.	Increased Mucification Present
C226064	C120531		Non-Neoplastic Finding Type	MUCINOUS CHANGE, ARTERY		Thickening of an artery due to accumulation of loose material with sparse fibroblastic-like cells surrounded by eosinophilic extracellular substance. (INHAND)	Artery Mucinous Change
C12607	C120531		Non-Neoplastic Finding Type	MULTINUCLEATED GIANT CELL		An abnormally large cell with more than one nucleus. (INHAND)	Giant Cell
C120900	C120531		Non-Neoplastic Finding Type	MULTINUCLEATED HEPATOCYTES		Hepatocytes that have multiple nuclei present.	Multinucleated Hepatocyte
C127195	C120531		Non-Neoplastic Finding Type	MURINE OBSTRUCTIVE UROPATHY	Mouse Urological Syndrome (MUS)	A constellation of findings in male mice characterized by ulceration and/or inflammation of the penis and prepuce, proteinaceous material with inflammatory cells, spermatozoa or desquamated urothelial cells forming a plug in the urethra and generally dilatation of the bladder, hydroureter and hydronephrosis.	Mouse Urological Syndrome
C161567	C120531		Non-Neoplastic Finding Type	MYELIN, INCREASED		Increase in the amount of myelin.	Myelin Sheath Regeneration
C214768	C120531		Non-Neoplastic Finding Type	MYELOID TO ERYTHROID RATIO, DECREASED	Decreased ME Ratio	A lower relative proportion of myeloid cells to erythroid cells in comparison to what is normally expected or observed.	Decreased Myeloid Cell to Erythroid Cell Ratio
C214767	C120531		Non-Neoplastic Finding Type	MYELOID TO ERYTHROID RATIO, INCREASED	Increased ME Ratio	A higher relative proportion of myeloid cells to erythroid cells in comparison to what is normally expected or observed.	Increased Myeloid Cell to Erythroid Cell Ratio
C161551	C120531		Non-Neoplastic Finding Type	NARROWED FILTRATION ANGLE		Displacement, compression or collapse of the trabecular beams, reducing or obliterating the spaces between the beams in the trabecular meshwork. (INHAND)	Narrowed Filtration Angle of Trabecular Meshwork
C16897	C120531		Non-Neoplastic Finding Type	NECROSIS	NECROSIS, SINGLE CELL;NECROSIS/DEGENERATION;DEGENERATION/NECROSIS	Death of a group of cells in an organ or tissue. (INHAND)	Necrotic Process
C139158	C120531		Non-Neoplastic Finding Type	NECROSIS/INFILTRATE		A finding that generally has features of necrosis and infiltrate.	Necrosis and Infiltrate
C139159	C120531		Non-Neoplastic Finding Type	NECROSIS/INFLAMMATION		A finding that generally has features of necrosis and inflammation.	Necrosis and Inflammation
C126089	C120531		Non-Neoplastic Finding Type	NEEDLE TRACT LESION		Focal lesion in the tissue due to insertion and/or withdrawal of the needle.	Needle Tract Lesion
C16900	C120531		Non-Neoplastic Finding Type	NEOVASCULARIZATION		The formation of new blood vessels.	Neovascularization
C66851	C120531		Non-Neoplastic Finding Type	NEPHROBLASTEMATOSIS		Small, focal or locally extensive basophilic cell mass of blast cells with ill-defined cytoplasm and nuclei, which may be present in one or both kidneys. May arise from remnant of developing metanephric blastema.	Diffuse Hyperplastic Perilobar Nephroblastomatosis
C221703	C120531		Non-Neoplastic Finding Type	NEURAL TISSUE LOSS		Chronic unilateral or bilateral lesions characterized by loss of nervous tissue, neurons, and neuropil resulting in altered tissue architecture with cavitation and partial or full thickness defects in the cerebral hemisphere wall. (INHAND)	Neural Tissue Loss
C176396	C120531		Non-Neoplastic Finding Type	NEURONAL AUTOPHAGY		A degradative change in neurons that is typically spontaneous, and is characterized by distinct membrane bound pale eosinophilic cytoplasm, dark eosinophilic globular material, and usually occurs with no discernable reaction of surrounding cells and a lack of infiltrating inflammatory cells.	Neuronal Autophagy
C174383	C120531		Non-Neoplastic Finding Type	NEURONAL HETEROTOPIA		Presence of normal-appearing neurons in an unexpected position, due to abnormal migration of precursor cells during development. (INHAND)	Neuronal Heterotopia
C120901	C120531		Non-Neoplastic Finding Type	NEURONOPHAGIA		The phagocytosis of degenerating neurons.	Neuronophagia
C120531		Yes	Non-Neoplastic Finding Type	NONNEO	Non-Neoplastic Finding Type	The terminology that includes concepts relevant to non-neoplastic microscopic findings.	CDISC SEND Non-Neoplastic Finding Type Terminology
C3284	C120531		Non-Neoplastic Finding Type	OBSTRUCTION		Complete or partial blockage of the lumen of a tubular structure.	Obstruction
C120902	C120531		Non-Neoplastic Finding Type	OBSTRUCTIVE NEPHROPATHY		Renal damage secondary to crystal deposition in the tubular lumen or blockage of urinary outflow in the bladder or urethra. Lesion is characterized by interstitial granulomatous inflammation often with epithelioid cells and multinucleated giant cells, crystal deposition or evidence of blockage of the ureters (e.g. proteinaceous plug in male mice). (INHAND)	Obstructive Nephropathy
C139149	C120531		Non-Neoplastic Finding Type	OSTEOBLASTIC SURFACE, INCREASED		Increase in the remodeling or modeling-based bone formation. (INHAND)	Increased Osteoblastic Surface
C147498	C120531		Non-Neoplastic Finding Type	OSTEOCLASTS, INCREASED		Increase in the prominence of osteoclasts.	Increased Osteoclasts
C139150	C120531		Non-Neoplastic Finding Type	OSTEOID, INCREASED		Increase in the amount of unmineralized bone matrix.	Increased Osteoid
C139151	C120531		Non-Neoplastic Finding Type	OSTEOPHYTE		Periarticular non-neoplastic osseous protuberance with or without a cartilage cap located along the epiphyseal margins. (INHAND)	Osteophyte
C161552	C120531		Non-Neoplastic Finding Type	OTOLITH LOSS OR DISORGANIZATION		Displacement or loss of the otoliths within the inner ear.	Otolith Loss Or Disorganization
C85207	C120531		Non-Neoplastic Finding Type	OVOTESTIS		A rare condition characterized by the unequivocal presence of both testicular and ovarian tissues in a gonad.	True Hermaphroditism
C158336	C120531		Non-Neoplastic Finding Type	PANETH CELL REDUCTION		Reduction in Paneth cell granules and loss of Paneth cells in small intestine. (INHAND)	Paneth Cell Reduction
C120903	C120531		Non-Neoplastic Finding Type	PARASITE	Parasites	The presence of parasites and/or parasitic ova.	Parasite Present
C4080	C120531		Non-Neoplastic Finding Type	PERFORATION		A hole or opening through a membrane or other tissue that is not normally present.	Perforation
C158334	C120531		Non-Neoplastic Finding Type	PERI-INSULAR HALOS, DECREASED		Decreased number and/or size of peri-insular halos.	Decreased Peri-Insular Halos
C158335	C120531		Non-Neoplastic Finding Type	PERI-INSULAR HALOS, INCREASED		Increased number and/or size of peri-insular halos.	Increased Peri-Insular Halos
C62547	C120531		Non-Neoplastic Finding Type	PERIODONTAL POCKET		An abnormal dilatation and/or expansion of the periodontium resulting in destruction of the supporting periodontal tissue.	Periodontal Pocket
C161553	C120531		Non-Neoplastic Finding Type	PERSISTENT HYALOID VESSELS		A congenital abnormality of the eye caused by failure of regression of the fetal eye vasculature.	Persistent Hyaloid Vessels
C161554	C120531		Non-Neoplastic Finding Type	PERSISTENT HYPERPLASTIC PRIMARY VITREOUS		A congenital abnormality of the eye caused by failure of regression of the primary vitreous and hyaloid vasculature anteriorly and/or posteriorly.	Persistent Hyperplastic Primary Vitreous
C161555	C120531		Non-Neoplastic Finding Type	PERSISTENT PUPILLARY MEMBRANE		A congenital abnormality of the eye caused by incomplete regression of the tunica vasculosa lentis, which is the blood supply for the developing lens of the fetus.	Persistent Pupillary Membrane
C202457	C120531		Non-Neoplastic Finding Type	PERSISTENT RATHKE'S POUCH		Remnants of oro-pharyngeal epithelium of craniopharyngeal duct (Rathke's pouch). (INHAND)	Persistent Rathke's Pouch
C163733	C120531		Non-Neoplastic Finding Type	PERSISTENT THYROGLOSSAL DUCT		Congenital finding/remnant of thyroglossal duct. (INHAND)	Persistent Thyroglossal Duct
C163734	C120531		Non-Neoplastic Finding Type	PERSISTENT X-ZONE		Incomplete regression of the X-zone in the adrenal gland. (INHAND)	Persistent X-Zone
C61250	C120531		Non-Neoplastic Finding Type	PHOSPHOLIPIDOSIS		Disorder caused by defects in the function of the lysosomes resulting in the presence of small clear vacuoles containing phospholipids within the cytoplasm of various cells. (INHAND)	Lysosomal Storage Disease
C170642	C120531		Non-Neoplastic Finding Type	PHYSEAL DYSPLASIA		Disorganization of the physeal chondrocytes with or without increased thickness of physis.	Physeal Dysplasia
C139153	C120531		Non-Neoplastic Finding Type	PHYSIS THICKNESS, DECREASED		Decrease in the thickness of the physis of a bone.	Decreased Physis Thickness
C139154	C120531		Non-Neoplastic Finding Type	PHYSIS THICKNESS, INCREASED		Increase in the thickness of the physis of a bone.	Increased Physis Thickness
C38005	C120531		Non-Neoplastic Finding Type	PIGMENT	Pigmentation;Pigments;PIGMENTED MACROPHAGE	Accumulation of exogenous or endogenous colored material within an organ, tissue or cell. (INHAND)	Pigmentation
C161560	C120531		Non-Neoplastic Finding Type	PIGMENT, DECREASED		Decrease in the amount of pigment.	Decreased Pigmentation
C161559	C120531		Non-Neoplastic Finding Type	PIGMENT, INCREASED		Increase in the amount of pigment.	Increased Pigmentation
C181554	C120531		Non-Neoplastic Finding Type	PLACENTAL REMNANT		The persistence of placental material after pregnancy.	Placental Remnant
C181556	C120531		Non-Neoplastic Finding Type	PLACENTAL REMNANT/IMPLANTATION SITE REMNANT		A finding that generally has features of placental remnants and implantation site remnants.	Placental Remnant and Implantation Site Remnant
C161556	C120531		Non-Neoplastic Finding Type	POLARITY, LOSS		A disruption of the intrinsic asymmetrical organization of cells within a structure.	Loss of Cell Polarity
C123641	C120531		Non-Neoplastic Finding Type	POLYOVULAR FOLLICLE		An ovarian follicle that contains more than one oocyte.	Polyovular Follicle
C187977	C120531		Non-Neoplastic Finding Type	PORCINE MYOPATHY	Myopathy, Porcine	A spontaneous muscular disease in minipigs, characterized by changes in skeletal myofibers, including both acute (dominated by necrosis, hemorrhage, edema, and mixed inflammatory cell infiltrates) and more chronic lesions (characterized by basophilic regenerating myofibers, mineralization, and occasionally fibrosis). (INHAND)	Porcine Myopathy
C161557	C120531		Non-Neoplastic Finding Type	PORPHYRIN, INCREASED		Increase in the amount of porphyrin.	Increased Porphyrin
C36173	C120531		Non-Neoplastic Finding Type	PROLAPSE		A condition in which an organ drops or bulges out of place. (NCI)	Prolapse
C214770	C120531		Non-Neoplastic Finding Type	PROLIFERATION, EXTRA-ISLET ENDOCRINE CELL		Diffuse or disseminated proliferation of pancreatic islet cells characterized by irregular shaped islets, ductulo-insular complexes, and budding of endocrine cells. (INHAND)	Extra-Islet Endocrine Cell Proliferation
C139160	C120531		Non-Neoplastic Finding Type	PROLIFERATION, INTIMA		Thickening of the tunica intima of a vessel by smooth muscle cells or, less commonly, fibroblasts.	Intimal Hyperplasia
C139161	C120531		Non-Neoplastic Finding Type	PROLIFERATION, STROMA, VALVE		A noninflammatory increase in valvular stromal cells accompanied by increased matrix.	Valve-Derived Stromal Cell Proliferation
C161558	C120531		Non-Neoplastic Finding Type	PROLIFERATION, TRABECULAR MESHWORK		Activation of abnormal cell growth within the trabecular meshwork of the eye, usually due to injury.	Trabecular Meshwork Proliferation
C123642	C120531		Non-Neoplastic Finding Type	PROSTATIC RUDIMENT		An embryological structure composed of epithelial cells surrounded by mesenchyme that gives rise, in the male, to the prostate gland.	Prostatic Rudiment
C163735	C120531		Non-Neoplastic Finding Type	PROTEINACEOUS FLUID, AQUEOUS HUMOR		A higher than normal amount of protein in the aqueous humor.	Proteinaceous Fluid in the Aqueous Humor
C120904	C120531		Non-Neoplastic Finding Type	PROTEINACEOUS PLUG	Seminal Plug	Eosinophilic proteinaceous material in male urinary bladder or urethra. (INHAND)	Proteinaceous Plug
C97117	C120531		Non-Neoplastic Finding Type	PSEUDOCYST		A cyst-like structure that appears as an irregular space between cells, which lacks an epithelial lining and may contain proteinaceous fluid. (INHAND)	Pseudocyst
C139152	C120531		Non-Neoplastic Finding Type	PULP CONCRETION		Concentric layers of mineralized tissue surrounding dead/injured cells or collagen fibers in the dental pulp. (INHAND)	Dental Pulp Concretion
C78582	C120531		Non-Neoplastic Finding Type	PUSTULE		A circumscribed skin or mucosal epithelial lesion filled with purulent material.	Pustular Lesion
C34965	C120531		Non-Neoplastic Finding Type	PYELONEPHRITIS		A tubulointerstitial inflammatory disease involving a spectrum of lesions affecting the tubules, interstitium and/or the pelvis of the kidney. Pyelonephritis can result from infections, both ascending and descending and following papillary necrosis and urothelial ulceration. Certain strains of rodents are particularly susceptible to developing spontaneous pyelonephritis and are used as animal models to assess antibiotic therapy. (INHAND)	Pyelonephritis
C121207	C120531		Non-Neoplastic Finding Type	PYOMETRA		The accumulation of inflammatory cells, predominantly neutrophils, within the uterus and lumen.	Pyometra
C174377	C120531		Non-Neoplastic Finding Type	RADICULONEUROPATHY		A spontaneous, age-related change characterized by primary segmental demyelination with secondary axonal degeneration in the large myelinated fibers of the spinal nerve roots. (INHAND)	Radiculoneuropathy
C139136	C120531		Non-Neoplastic Finding Type	RAREFACTION		Intracytoplasmic accumulation of material such as glycogen or xenobiotics, characterized by clear, not well defined spaces in the cytoplasm around a centrally located nucleus. (INHAND)	Tissue Rarefaction
C17083	C120531		Non-Neoplastic Finding Type	REGENERATION	DEGENERATION/REGENERATION	A reparative process to replace lost or damaged cells, commonly characterized by cellular basophilia, increased nuclear cytoplasmic ratio and/or irregular architecture.	Regeneration
C3847	C120531		Non-Neoplastic Finding Type	RENAL DYSPLASIA		A finding of congenital malformations in the kidney characterized by the presence of cysts of various sizes, primitive ducts, islands of metaplastic cartilage and undifferentiated mesenchyme, and the absence of cortico-medullary demarcation.	Renal Cell Dysplasia
C176397	C120531		Non-Neoplastic Finding Type	RENAUT BODY		The presence of round or ellipsoid, variably layered, pale structures located among nerve fascicles, not associated with axons or Schwann cells.	Renaut Body
C93204	C120531		Non-Neoplastic Finding Type	RESORPTION		A process in which tissue is absorbed by the body.	Resorption
C214764	C120531		Non-Neoplastic Finding Type	RETINAL DYSPLASIA		Abnormal development of the neuroretina causing disorganization of the retinal layers. (INHAND)	Retinal Dysplasia
C124578	C120531		Non-Neoplastic Finding Type	RETINAL FOLD	Retinal Folds;RETINAL FOLD(S)	Undulation of retinal layers. (Makris S, Solomon HM, Clark R, Shiota K, Barbellion S, Buschmann J, Ema M, Fujiwara M, Grote K, Hazelden KP, Hew KW, Horimoto M, Ooshima Y, Parkinson M, Wise LD. Terminology of developmental abnormalities in common laboratory mammals (Version 2). Part B. Birth Defects Res B Dev Reprod Toxicol. 2009 Aug;86(4):227-327.)	Retinal Fold
C161565	C120531		Non-Neoplastic Finding Type	RETINAL ROSETTE	Retinal Rosettes	Focal to multifocal rosette-like and tubular structures expanding and distorting the inner and outer nuclear layers. (INHAND)	Retinal Rosette
C120905	C120531		Non-Neoplastic Finding Type	RETROGRADE NEPHROPATHY		Constellation of tubule changes extending from papilla to cortex. In the cortex, the lesions consist of linear patches of tubular basophilia coupled with tubular dilatation and tracts of basophilic, hyperplastic collecting ducts, often with mitotic figures. Inflammation is usually not a prominent component. Differentiated from obstructive nephropathy by absence of granulomatous inflammation and crystals.	Reflux Nephropathy
C161561	C120531		Non-Neoplastic Finding Type	RODENT PROGRESSIVE CARDIOMYOPATHY		A spontaneous, age-related cardiac disease of rats and mice, characterized by myocardial changes presenting a continuum that begins as focal to multifocal individual cardiomyocyte necrosis attended by a few inflammatory cells progressing at different rates in different animals to include multifocal mononuclear cell inflammation and even fibrosis for larger lesions. (INHAND)	Rodent Progressive Cardiomyopathy
C9445	C120531		Non-Neoplastic Finding Type	RUPTURE		Traumatic or spontaneous breakage of tissue.	Rupture
C40119	C120531		Non-Neoplastic Finding Type	SALPINGITIS ISTHMICA NODOSA		Nodules and diverticuli in the isthmus of the fallopian tube.	Salpingitis Isthmica Nodosa
C98382	C120531		Non-Neoplastic Finding Type	SATELLITOSIS		A finding characterized by the presence of rings or clusters of primarily oligodendroglia near a degenerating neuron cell body.	Perineuronal Satellitosis
C166107	C120531		Non-Neoplastic Finding Type	SECRETION, DECREASED		Decreased amount of a secretory content present in the glandular lumen.	Decreased Secretion
C166108	C120531		Non-Neoplastic Finding Type	SECRETION, INCREASED		Increased amount of a secretory content present in the glandular lumen.	Increased Secretion
C158337	C120531		Non-Neoplastic Finding Type	SECRETORY DEPLETION		Decreased secretory content (e.g., mucus or granules) in secretory cells.	Secretory Depletion
C120906	C120531		Non-Neoplastic Finding Type	SEPTAL DEVIATION		An alteration of the septum from the midline. This is typically seen in the nasal cavity.	Septal Deviation
C176407	C120531		Non-Neoplastic Finding Type	SEROSA-ASSOCIATED LYMPHOID CLUSTERS, INCREASED	Increased Serosa-Associated Lymphoid Clusters;SALCS, Increased	Increase in clusters of lymphocytes (including innate lymphoid cells), macrophages, plasma cells, and mast cells located immediately below, and covered by, the mesothelium. (INHAND)	Experimental Organism Increased Serosa-Associated Lymphoid Clusters
C176409	C120531		Non-Neoplastic Finding Type	SEROUS ATROPHY OF FAT		Focal or diffuse depletion of adipocytes with a replacement of adipose tissue by eosinophilic substance. (INHAND)	Gelatinous Bone Marrow Transformation
C60880	C120531		Non-Neoplastic Finding Type	SINGLE CELL NECROSIS		Death of an individual cell(s) in an organ or tissue, generally associated with cellular debris and inflammation.	Single Cell Necrosis
C80355	C120531		Non-Neoplastic Finding Type	SPERM GRANULOMA		An aggregate of extravasated sperm in the paratesticular region surrounded by granulomatous inflammation.	Sperm Granuloma
C120907	C120531		Non-Neoplastic Finding Type	SPERM STASIS		Luminal aggregation of released sperm generally within an atrophic tubule. (INHAND)	Spermatic Stasis
C61050	C120531		Non-Neoplastic Finding Type	SPERM, DECREASED	Reduced Sperm	A reduction in sperm content is generally the result of reduced sperm output by the testis due to germ cell injury, decreased androgen support or rarely, secondary to congenital testicular hypoplasia/agenesis. (INHAND)	Decreased Sperm Count
C120908	C120531		Non-Neoplastic Finding Type	SPERMATID RETENTION		Persistence of mature elongating spermatids in the seminiferous tubule after the normal stage of physiologic release.	Spermatid Retention
C120909	C120531		Non-Neoplastic Finding Type	SPERMATOCELE		A benign cystic dilatation in the epididymis or testis that contains fluid and spermatozoa.	Spermatocele
C176400	C120531		Non-Neoplastic Finding Type	SPLENIC CONTRACTION	Contracted Spleen	The process by which the spleen becomes smaller in size or scope.	Splenic Contraction
C221709	C120531		Non-Neoplastic Finding Type	SPONTANEOUS NEPHROPATHY		A spontaneous nephropathy in the proximal and distal renal tubules of rabbits characterized by at least three of the following: basophilic tubules, dilated or cystic tubules, pigmented tubules, and/or interstitial inflammatory cell infiltrates. (INHAND)	Rabbit Spontaneous Nephropathy
C3134	C120531		Non-Neoplastic Finding Type	SQUAMOUS CYST		A sac-like structure lined by stratified squamous epithelium. (INHAND)	Epidermal Inclusion Cyst
C154894	C120531		Non-Neoplastic Finding Type	SQUAMOUS PLAQUE/CYST		A focus of squamous epithelium in or near the surface of the heart, generally believed to be an embryonic rest.	Squamous Plaque/Cyst
C221701	C120531		Non-Neoplastic Finding Type	SWOLLEN SPERMATOCYTES	Spermatocyte Swelling	Spermatocytes that appear enlarged and are considered to be individual germ cells arrested during meiosis	Enlarged Spermatocyte
C158331	C120531		Non-Neoplastic Finding Type	SYNCYTIA		A type of multinucleated cell formed by the fusion of multiple uninucleated cells.	Experimental Organism Syncytium
C85179	C120531		Non-Neoplastic Finding Type	SYRINGOMYELIA		Cavitation of the spinal cord parenchyma.	Syringomyelia
C123643	C120531		Non-Neoplastic Finding Type	SYRINGOMYELIA/HYDROMYELIA		A finding that generally has features of syringomyelia and hydromyelia.	Syringomyelia and Hydromyelia
C120910	C120531		Non-Neoplastic Finding Type	TENSION LIPIDOSIS		A focus of hepatocytes containing well delineated circular clear spaces in the liver, often near mesenteric attachments such as the falciform ligament.	Tension Lipidosis
C176410	C120531		Non-Neoplastic Finding Type	TERTIARY LYMPHOID STRUCTURES	TLS	The formation of follicular structures, preferably with some germinal center development, with distinct high endothelial venules (HEVs) and inflammation in an atypical location. (INHAND)	Tertiary Lymphoid Structure
C174380	C120531		Non-Neoplastic Finding Type	THICKNESS, DECREASED		A decrease in the thickness of a structure.	Decreased Thickness
C174381	C120531		Non-Neoplastic Finding Type	THICKNESS, INCREASED		An increase in the thickness of a structure.	Increased Thickness
C27083	C120531		Non-Neoplastic Finding Type	THROMBUS	Thrombi;Thrombosis	An intravascular aggregation of blood components, primarily platelets and fibrin with entrapment of cellular elements, which is attached to the vessel wall.	Blood Clot
C176411	C120531		Non-Neoplastic Finding Type	THYMIC CORPUSCLES, INCREASED	Increased Hassall's Corpuscles	Increase in the amount of thymic corpuscles.	Increased Hassall's Corpuscles
C176403	C120531		Non-Neoplastic Finding Type	THYMIC EPITHELIUM-FREE AREAS, INCREASED		Increase in the amount of epithelium-free areas in the thymic cortex.	Increased Thymic Epithelium-Free Areas
C176408	C120531		Non-Neoplastic Finding Type	THYMIC INVOLUTION, AGE-RELATED		Lymphocyte populations in the thymus gradually decline with age beginning at puberty. (INHAND)	Age-Related Thymic Involution
C163736	C120531		Non-Neoplastic Finding Type	THYROID DYSPLASIA		Abnormal development of thyroid follicular cells.	Thyroid Dysplasia
C166109	C120531		Non-Neoplastic Finding Type	TINGIBLE BODY MACROPHAGES, INCREASED		Macrophages scattered among lymphocytes and containing intracytoplasmic apoptotic bodies. (INHAND)	Increased Tingible Body Macrophages
C120911	C120531		Non-Neoplastic Finding Type	TYPE II ASTROCYTES		Cytotoxic response of astrocytes characterized by swollen nuclei with central clearing, marginated heterochromatin, prominent/swollen nucleoli and indistinct cytoplasm.	Alzheimer Type II Astrocyte
C3426	C120531		Non-Neoplastic Finding Type	ULCER	Ulceration	Destruction of an epithelial surface extending into or beyond the basement membrane.	Ulcer
C163737	C120531		Non-Neoplastic Finding Type	ULTIMOBRANCHIAL CYST		Congenital finding/remnant of embryonic ultimobranchial duct. (INHAND)	Ultimobranchial Cyst
C96302	C120531		Non-Neoplastic Finding Type	VACUOLATION	Cytoplasmic Vacuolation;Vacuoles;VACUOLIZATION;VACUOLATION, HEPATOCYTE;VACUOLIZATION HEPATOCELLULAR;VACUOL;FAT VACUOLES	The presence of vacuoles within the cytoplasm of cells.	Cytoplasmic Vacuolation
C161568	C120531		Non-Neoplastic Finding Type	VACUOLATION, EXTRACELLULAR		Presence of extracellular clear spaces.	Extracellular Vacuolation
C120912	C120531		Non-Neoplastic Finding Type	VESICLE		An abnormal fluid-filled cleft (e.g. as in the epidermis) or membrane-bound space.	Vesicle
C221710	C120531		Non-Neoplastic Finding Type	XANTHOMATOUS ALTERATION		A non-neoplastic accumulation of lipid-laden macrophages (foam cells) in the dermis. (INHAND)	Cutaneous Xanthomatous Alteration
C120913	C120531		Non-Neoplastic Finding Type	YEAST		The presence of yeast.	Yeast Present
