Code	Codelist Code	Codelist Extensible (Yes/No)	Codelist Name	CDISC Submission Value	CDISC Synonym(s)	CDISC Definition	NCI Preferred Term
C78734	C77526	Yes	Specimen Type	SPEC	SPEC	Specimen Type controlled terminology codelist. Bootstrap subset present in the source workspace per AC-1.2 for future organ-side dictionary work; NOT currently consumed by build_synonym_dictionary.py (specimen canonicalization is handled by shared/config/organ-aliases.json in this cycle). This file is a placeholder so future maintainers can drop in full CDISC SEND CT SPEC.tsv when Phase D or a follow-up cycle adds organ-side dictionary resolution.	Specimen Type
C32286	C77526	Yes	Specimen Type	LIVER	LIVER	Liver specimen	Liver
C12439	C77526	Yes	Specimen Type	KIDNEY	KIDNEYS	Kidney specimen	Kidney
C12454	C77526	Yes	Specimen Type	HEART	HEART	Heart specimen	Heart
