Code	Codelist Code	Codelist Extensible (Yes/No)	Codelist Name	CDISC Submission Value	CDISC Synonym(s)	CDISC Definition	NCI Preferred Term
C66741		Yes	Vital Signs Test Code	VSTESTCD	Vital Signs Test Code	The test code given to the test that analyzes a particular set of vital signs including temperature, respiratory rate, heart rate, and blood pressure.	CDISC SDTM Vital Sign Test Code Terminology
C87304	C66741		Vital Signs Test Code	ABI	Ankle-Brachial Index	The ratio of ankle systolic pressure to brachial systolic pressure, used to assess arterial insufficiency in the lower extremities.	Ankle-Brachial Index
C103346	C66741		Vital Signs Test Code	ABSKNF	Abdominal Skinfold Thickness	A measurement for determining the subcutaneous fat layer thickness whereby a pinch of skin approximately five centimeters to the right of the umbilicus is measured using calipers. (NCI)	Abdominal Skinfold Thickness
C181553	C66741		Vital Signs Test Code	ARMSPAN	Arm Span; Armspan; Reach; Wingspan	A measurement of the length from the tip of the middle finger on one hand to the tip of the middle finger on the other hand with the individual standing against the wall with both arms abducted to 90 degrees, the elbows and wrists extended, and the palms facing directly forward. (Philip H. Quanjer, Andre Capderou, Mumtaz M. Mazicioglu, Ashutosh N. Aggarwal, Sudip Datta Banik, Stevo Popovic, Francis A.K. Tayie, Mohammad Golshan, Mary S.M. Ip, Marc Zelter. European Respiratory Journal 2014 44: 905-912)	Arm Span
C199996	C66741		Vital Signs Test Code	BCM	Body Cell Mass	An estimated measurement of the total mass of metabolically active cells in the body.	Body Cell Mass Measurement
C205752	C66741		Vital Signs Test Code	BLAPCTL	Body Length-for-Age Percentile	An assessed relationship of an individual's body length and age to that of a reference population, expressed as a percentile.	Body Length-for-Age Percentile
C16358	C66741		Vital Signs Test Code	BMI	Body Mass Index	A general indicator of the body fat an individual is carrying based upon the ratio of weight to height. (NCI)	Body Mass Index
C163567	C66741		Vital Signs Test Code	BMIAPCTL	BMI-for-Age Percentile	An assessed relationship of an individual's body mass index and age to that of a reference population, expressed as a percentile.	BMI-for-Age Percentile
C126083	C66741		Vital Signs Test Code	BMR	Basal Metabolic Rate	The measurement of a subject's energy expenditure when at rest.	Basal Metabolic Rate
C81298	C66741		Vital Signs Test Code	BODLNGTH	Body Length	The linear extent in space from one end of the body to the other end, or the extent of the body from beginning to end.	Total Body Length
C122232	C66741		Vital Signs Test Code	BODYFATM	Body Fat Measurement	A measurement of the total fat mass within the subject's body. (NCI)	Body Fat Measurement
C76325	C66741		Vital Signs Test Code	BRTHWT	Birth Weight	A measurement of the weight of a neonate at birth.	Birth Weight
C25157	C66741		Vital Signs Test Code	BSA	Body Surface Area	A measure of the 2-dimensional extent of the body surface (i.e., the skin). Body surface area (BSA) can be calculated by mathematical formula or from a chart that relates height to weight. BSA is often an important factor in dosing. (NCI)	Body Surface Area
C178060	C66741		Vital Signs Test Code	CALFCIR	Calf Circumference	A circumferential measurement of the lower leg in the region of the calf at the widest point.	Calf Circumference
C156606	C66741		Vital Signs Test Code	CHESTCIR	Chest Circumference	The distance around an individual's chest.	Chest Circumference
C168125	C66741		Vital Signs Test Code	CPLRFLT	Capillary Refill Time	The amount of time it takes for a capillary bed to refill with blood after pressure blanching.	Capillary Refill Test
C170639	C66741		Vital Signs Test Code	CRWNHEEL	Crown-to-Heel Length	A measurement of the length of the body from the crown of the head to the bottom of the heel.	Crown to Heel Length
C172610	C66741		Vital Signs Test Code	DBPAPCTL	Diastolic Blood Pressure-for-Age Percentile; Diastolic BP-for-Age Percentile	An assessed relationship of an individual's diastolic blood pressure and age to that of a reference population, expressed as a percentile.	Diastolic Blood Pressure-for-Age Percentile
C172609	C66741		Vital Signs Test Code	DBPHPCTL	Diastolic Blood Pressure-for-Height Percentile; Diastolic BP-for-Height Percentile	An assessed relationship of an individual's diastolic blood pressure and height to that of a reference population, expressed as a percentile.	Diastolic Blood Pressure-for-Height Percentile
C25299	C66741		Vital Signs Test Code	DIABP	Diastolic Blood Pressure	The minimum blood pressure in the systemic arterial circulation during the cardiac cycle.	Diastolic Blood Pressure
C191364	C66741		Vital Signs Test Code	ECW	Extracellular Body Water; Extracellular Water	A measurement of the quantity of water in the extracellular compartments within the body.	Extracellular Water Measurement
C191363	C66741		Vital Signs Test Code	ECWTBW	ECW/TBW; Extracellular Water/Total Body Water	A relative measurement (ratio or percentage) of the quantity of water in extracellular compartments to the total quantity of water within the body.	Extracellular Water to Total Body Water Ratio Measurement
C147491	C66741		Vital Signs Test Code	ENRGEXP	Energy Expenditure	A measurement of the amount of energy used to carry out a physiological or physical function.	Energy Expenditure
C132482	C66741		Vital Signs Test Code	EWEIGHT	Estimated Body Weight; Estimated Weight	An approximate determination of the body weight of the subject.	Estimated Body Weight
C100946	C66741		Vital Signs Test Code	FARMCIR	Forearm Circumference	The distance around an individual's forearm.	Forearm Circumference
C38082	C66741		Vital Signs Test Code	FIO2	Fraction of Inspired Oxygen	A measurement of the volumetric fraction of oxygen in the inhaled gas.	Fraction of Inspired Oxygen
C49680	C66741		Vital Signs Test Code	FRMSIZE	Body Frame Size	The categorization of a person's body frame into small, medium and large based on the measurement of wrist circumference or the breadth of the elbow. (NCI)	Body Frame Size
C174372	C66741		Vital Signs Test Code	FTEWT	Fetal Estimated Weight	An approximate determination of the weight of the fetus.	Fetal Estimated Weight
C158297	C66741		Vital Signs Test Code	FTHDCIRC	Fetal Head Circumference	A circumferential measurement of the fetal head at the widest point.	Fetal Head Circumference
C92716	C66741		Vital Signs Test Code	FTHR	Fetal Heart Rate; Fetal HR	The number of fetal heartbeats per unit of time.	Fetal Heart Rate
C174375	C66741		Vital Signs Test Code	FTMANDL	Fetal Mandibular Length	A measurement of the length of the fetal mandible.	Fetal Mandibular Length
C174373	C66741		Vital Signs Test Code	FTSAD	Fetal SAD; Fetal Sagittal Abdominal Diameter	A measurement of the sagittal abdominal diameter of the fetus.	Fetal Sagittal Abdominal Diameter
C214762	C66741		Vital Signs Test Code	FTSZGAC	Fetal Size-for-Gestational Age Category	An assessed relationship of the fetal size and gestational age to that of a reference population, expressed as a category.	Fetal Size-for-Gestational Age Category
C174374	C66741		Vital Signs Test Code	FTWTGAPL	Fetal Weight-for-Gest Age Percentile; Fetal Weight-for-Gestational Age Percentile	An assessed relationship of the fetal weight and gestational age to that of a reference population, expressed as a percentile.	Fetal Weight-for-Gestational Age Percentile
C205753	C66741		Vital Signs Test Code	HCRAPCTL	Head Circumference-for-Age Percentile; Head Occipital-Frontal Circumference-for-Age Percentile	An assessed relationship of an individual's head circumference and age to that of a reference population, expressed as a percentile.	Head Circumference-for-Age Percentile
C81255	C66741		Vital Signs Test Code	HDCIRC	Head Circumference	A circumferential measurement of the head at the widest point.	Head Circumference
C25347	C66741		Vital Signs Test Code	HEIGHT	Height	The vertical measurement or distance from the base to the top of an object; the vertical dimension of extension. (NCI)	Height
C100947	C66741		Vital Signs Test Code	HIPCIR	Hip Circumference	The distance around an individual's pelvic area or hips.	Hip Circumference
C49677	C66741		Vital Signs Test Code	HR	Heart Rate	The number of heartbeats per unit of time, usually expressed as beats per minute. (NCI)	Heart Rate
C199998	C66741		Vital Signs Test Code	HRVSDANN	Heart Rate Variability, Average Standard Deviation NN Interval; Heart Rate Variability, SDANN	A measurement of the fluctuation in the time intervals between adjacent heartbeats, based on the average standard deviation of the means of consecutive 5 minute NN intervals over a period of time.	Heart Rate Variability, Average Standard Deviation NN Interval Measurement
C199682	C66741		Vital Signs Test Code	HRVSDNN	Heart Rate Variability, SDNN; Heart Rate Variability, Standard Deviation NN Interval	A measurement of the fluctuation in the time intervals between adjacent heartbeats, based on the standard deviation of the NN interval.	Heart Rate Variability, Standard Deviation NN Interval Measurement
C163568	C66741		Vital Signs Test Code	HTAPCTL	Height-for-Age Percentile	An assessed relationship of an individual's height and age to that of a reference population, expressed as a percentile.	Height-for-Age Percentile
C117976	C66741		Vital Signs Test Code	IDEALWT	Ideal Body Weight	A person's optimum weight as calculated by a standard methodology.	Ideal Body Weight
C41255	C66741		Vital Signs Test Code	INTP	Interpretation	An act or process of elucidation; explication, or explanation of the meaning of the event or thing via the assignment of objects from the domain to the constants of a formal language, truth-values to the proposition symbols, truth-functions to the connectives, other functions to the function symbols, and extensions to the predicates, if any. The assignments are result of human logic application and are not native to the symbols of the formal language.	Interpretation
C84372	C66741		Vital Signs Test Code	KNEEHEEL	Knee to Heel Length	A measurement of the length of the lower leg from the top of the knee to the bottom of the heel. This measurement may be taken with a knemometer or calipers. (NCI)	Knee to Heel Length Measurement
C71258	C66741		Vital Signs Test Code	LBM	Lean Body Mass	The weight of all organs and tissue in an individual less the weight of the individual's body fat.	Lean Body Mass
C139219	C66741		Vital Signs Test Code	LBMTBMR	Lean Body Mass/Total Body Mass	The relative measurement (percentage) of the individual's lean body weight to total body weight.	Lean Body Mass to Total Body Mass Ratio Measurement
C199997	C66741		Vital Signs Test Code	LTM	Lean Tissue Mass	The weight of a tissue part or whole tissue in an individual less the weight of the individual's body fat within that tissue part or whole tissue.	Lean Tissue Mass Measurement
C174233	C66741		Vital Signs Test Code	MANDL	Mandibular Length	A measurement of the length of the mandible.	Mandibular Length
C49679	C66741		Vital Signs Test Code	MAP	Mean Arterial Pressure	The mean pressure of the blood within the arterial circulation.	Mean Arterial Pressure
C147492	C66741		Vital Signs Test Code	MAXPREHR	Maximum Predicted Heart Rate	The predicted upper limit for an individual's heart rate, which is calculated as 220 minus the subject's age for men, and 210 minus the subject's age for women.	Maximum Predicted Heart Rate
C124475	C66741		Vital Signs Test Code	MUARMCIR	Mid-Upper Arm Circumference	The distance around an individual's upper arm, at the widest point.	Mid-Upper Arm Circumference
C154891	C66741		Vital Signs Test Code	NECKCIR	Neck Circumference	A circumferential measurement of the neck, just below the larynx.	Neck Circumference
C60832	C66741		Vital Signs Test Code	OXYSAT	Oxygen Saturation	A measurement of the oxygen-hemoglobin saturation of a volume of blood.	Oxygen Saturation Measurement
C49676	C66741		Vital Signs Test Code	PULSE	Pulse Rate	The rate of the pulse as observed in an artery, expressed as beats per minute. It can be measured at several anatomical sites, including the wrist, neck, temple, groin, behind the knees, or on top of the foot. (NCI)	Pulse Rate
C100945	C66741		Vital Signs Test Code	PULSEPR	Pulse Pressure	The change in systolic to diastolic pressure which produces a pulse.	Pulse Pressure
C49678	C66741		Vital Signs Test Code	RESP	Respiratory Rate	The rate of breathing (inhalation and exhalation) measured within in a unit time, usually expressed as breaths per minute. (NCI)	Respiratory Rate
C87054	C66741		Vital Signs Test Code	SAD	Sagittal Abdominal Diameter	A standard measure of visceral obesity, or abdominal fat, which is measured from the patient's back to upper abdomen between the bottom of the rib cage and the top of the pelvic area. This measurement may be taken with the patient standing or in the supine position. (NCI)	Sagittal Abdominal Diameter
C174311	C66741		Vital Signs Test Code	SAO2FIO2	Oxygen Saturation/Fraction Inspired O2	A relative measurement (ratio or percentage) of the oxygen-hemoglobin saturation of a volume of blood to the volumetric fraction of oxygen in the inhaled gas.	Oxygen Saturation/Fraction Inspired O2
C172608	C66741		Vital Signs Test Code	SBPAPCTL	Systolic Blood Pressure-for-Age Percentile; Systolic BP-for-Age Percentile	An assessed relationship of an individual's systolic blood pressure and age to that of a reference population, expressed as a percentile.	Systolic Blood Pressure-for-Age Percentile
C172607	C66741		Vital Signs Test Code	SBPHPCTL	Systolic Blood Pressure-for-Height Percentile; Systolic BP-for-Height Percentile	An assessed relationship of an individual's systolic blood pressure and height to that of a reference population, expressed as a percentile.	Systolic Blood Pressure-for-Height Percentile
C98785	C66741		Vital Signs Test Code	SSSKNF	Subscapular Skinfold Thickness	A measurement of the thickness of a pinch of skin situated below or on the underside of the scapula. (NCI)	Subscapular Skinfold Thickness
C25298	C66741		Vital Signs Test Code	SYSBP	Systolic Blood Pressure	The maximum blood pressure in the systemic arterial circulation during the cardiac cycle.	Systolic Blood Pressure
C104622	C66741		Vital Signs Test Code	TBW	Total Body Water	A measurement of the quantity of water within the body, including both the intracellular and extracellular compartments.	Total Body Water Measurement
C225770	C66741		Vital Signs Test Code	TBWTBM	Total Body Water/Total Body Mass	A relative measurement (ratio or percentage) of an individual's total body water weight to total body weight.	Total Body Water to Total Body Mass Ratio Measurement
C174446	C66741		Vital Signs Test Code	TEMP	Body Temperature; Temperature	A measurement of the temperature of the body.	Body Temperature
C174370	C66741		Vital Signs Test Code	TEMPCB	Core Body Temperature	A measurement of the temperature within the deep tissues of the body.	Core Body Temperature
C174371	C66741		Vital Signs Test Code	TEMPPB	Peripheral Body Temperature	A measurement of the temperature of the body at or near its surface.	Peripheral Body Temperature
C191365	C66741		Vital Signs Test Code	TIBIAL	Tibial Length	A measurement of the length of the tibia.	Tibial Length
C98793	C66741		Vital Signs Test Code	TRSKNF	Triceps Skinfold Thickness	A measurement of the thickness of a pinch of skin on the triceps. (NCI)	Triceps Skinfold Thickness
C174376	C66741		Vital Signs Test Code	ULNARL	Ulnar Length	A measurement of the length of the ulna.	Ulnar Length
C17651	C66741		Vital Signs Test Code	WAISTHIP	Waist to Hip Ratio	A relative measurement (ratio) of the waist circumference to the hip circumference.	Waist-Hip Ratio
C181552	C66741		Vital Signs Test Code	WASTHEEL	Waist to Heel Length	A measurement from the top of the waist to the bottom of the heel.	Waist to Heel Length
C25208	C66741		Vital Signs Test Code	WEIGHT	Weight	The vertical force exerted by a mass as a result of gravity. (NCI)	Weight
C100948	C66741		Vital Signs Test Code	WSTCIR	Waist Circumference	The distance around an individual's midsection or waist.	Waist Circumference
C163569	C66741		Vital Signs Test Code	WTAPCTL	Weight-for-Age Percentile	An assessed relationship of an individual's weight and age to that of a reference population, expressed as a percentile.	Weight-for-Age Percentile
C163570	C66741		Vital Signs Test Code	WTHTPCTL	Weight-for-Height Percentile	An assessed relationship of an individual's weight and height to that of a reference population, expressed as a percentile.	Weight-for-Height Percentile
