Code	Codelist Code	Codelist Extensible (Yes/No)	Codelist Name	CDISC Submission Value	CDISC Synonym(s)	CDISC Definition	NCI Preferred Term
C78607	C77525	Yes	Clinical Observation Result	CLOBS	CLOBS	Clinical observation result (test fixture)	Clinical Observation
C156458	C77525	Yes	Clinical Observation Result	ALOPECIA	HAIR LOSS	Hair loss	Alopecia
